Gyro Roll;Gyro Pitch;Gyro Yaw;Accel X;Accel Y;Accel Z
0;0;0;0.335;-2.096;-7.38
0.035;0.026;0;-0.455;1.847;-8.966
0.022;-1.41E-03;0;-0.72;0.178;-12.134
-3.89E-03;-0.024;0;-0.411;-0.298;-11.945
0.012;0.021;0;0.51;2.105;-9.088
-0.02;0.027;0;-2.321;-0.194;-8.514
0.023;0.013;0;-0.484;2.307;-11.097
-0.012;0.034;0;0.436;0.141;-7.724
0.015;-5.59E-03;0;0.16;-0.859;-9.982
0.029;-3.36E-03;0;-2.153;-0.173;-9.082
0.025;0.023;0;-0.432;-0.688;-10.326
-0.031;0.011;0;-0.922;-1.471;-9.84
0.027;8.74E-03;0;1.498;1.727;-9.68
0.034;-0.016;0;-2.161;-1.029;-10.742
-3.55E-04;-0.027;0;1.59;-0.293;-8.263
-5.00E-03;-0.011;0;1.798;1.593;-8.377
0.024;-0.03;0;0.793;-1.003;-8.646
5.01E-03;-0.023;0;-1.544;2.018;-7.938
0.031;0.02;0;-0.018;-1.444;-11.567
-0.017;-2.80E-03;0;1.583;-0.417;-10.856
4.27E-04;1.99E-03;0;-1.578;-1.147;-11.66
-0.023;-0.03;0;-2.219;-1.234;-11.132
-0.028;-0.015;0;1.956;-0.91;-8.837
-8.64E-04;0.027;0;-0.267;2.155;-7.702
4.26E-03;0.013;0;1.1;2.37E-04;-10.263
-0.022;-1.25E-04;0;1.681;0.815;-8.971
-0.017;0.03;0;1.82;-2.335;-9.843
-0.031;9.55E-03;0;0.437;-0.848;-8.02
-5.65E-03;0.019;0;1.881;-0.558;-11.467
0.017;-2.43E-03;0;2.449;-1.565;-10.366
-0.021;-0.031;0;0.347;-0.637;-10.844
9.98E-03;0.018;0;2.345;0.083;-11.068
-0.01;0.029;0;0.424;1.775;-11.784
0.034;5.14E-03;0;-2.279;0.958;-7.856
0.017;-0.013;0;1.897;1.754;-10.978
-4.09E-03;0.027;0;1.546;-1.489;-9.58
-0.021;0.018;0;1.018;1.443;-7.913
2.75E-03;0.014;0;1.567;2.057;-11.277
-0.014;2.21E-03;0;-1.073;-0.318;-7.625
4.53E-03;0.032;0;1.169;0.721;-10.52
-0.014;-4.19E-03;0;-2.009;0.445;-10.428
-4.82E-03;0.03;0;-0.288;-0.294;-7.522
-0.014;-0.026;0;1.565;1.471;-9.198
-3.06E-03;-7.12E-03;0;-1.253;-1.487;-10.76
0.025;0.027;0;1.38;-0.997;-7.593
6.71E-03;0.029;0;-2.116;-1.283;-9.832
6.10E-04;-0.024;0;1.691;-1.14;-7.666
-0.015;-6.58E-04;0;-0.589;1.48;-9.42
0.024;0.018;0;1.913;2.452;-9.097
2.28E-03;3.05E-03;0;-0.136;0.655;-9.144
-0.012;0.021;0;1.304;1.237;-11.775
0.025;2.59E-03;0;2.058;-1.015;-8.785
0.026;-6.47E-03;0;0.279;1.094;-11.067
-0.011;-0.03;0;1.76;0.364;-10.161
6.62E-03;-0.014;0;-0.559;-0.435;-11.161
-0.029;0.031;0;1.73;0.851;-8.62
0.025;-0.01;0;-0.247;-0.08;-7.359
-0.02;-7.52E-04;0;-2.303;-1.284;-7.936
0.022;0.022;0;0.117;-0.584;-10.776
-0.019;0.033;0;-1.386;-1.868;-8.287
0.025;-0.016;0;0.614;2.07;-8.65
-0.014;7.66E-03;0;1.729;-2.06;-10.728
0.016;-7.54E-03;0;-1.967;-1.888;-10.617
-0.01;0.015;0;-0.779;-2.198;-11.875
-0.013;-0.021;0;1.183;-1.103;-11.664
0.027;0.035;0;-0.552;-1.257;-8.171
-0.02;6.22E-04;0;-0.258;2.139;-7.706
6.17E-04;-1.74E-03;0;0.142;1.547;-7.487
6.64E-03;-0.027;0;0.655;0.294;-9.857
-0.028;0.018;0;2.349;-0.756;-9.748
-1.54E-03;0.012;0;-1.459;-1.721;-10.678
3.62E-03;6.63E-03;0;-2.35;0.796;-12.021
-0.021;0.029;0;-1.07;-0.477;-11.911
4.66E-03;-9.30E-03;0;-1.766;0.51;-9.361
-0.03;0.03;0;-0.76;-1.338;-9.301
-0.014;8.68E-03;0;-0.909;2.384;-8.405
0.022;0.032;0;-1.751;2.343;-10.357
-0.021;-0.03;0;-0.43;-0.518;-10.587
1.69E-03;-0.027;0;1.467;1.09;-9.502
0.033;0.02;0;2.439;-1.658;-10.803
-3.07E-03;7.89E-03;0;1.821;0.243;-10.888
-3.32E-04;4.28E-03;0;2.302;-1.888;-11.669
-0.021;0.028;0;-0.799;-0.771;-8.895
-8.71E-03;0.029;0;1.684;-0.019;-7.854
-0.021;-6.83E-03;0;-0.166;-1.626;-11.796
0.028;-0.017;0;-0.64;-0.102;-7.946
0.014;-0.021;0;1.332;-0.584;-8.973
0.016;0.019;0;-1.168;1.664;-9.862
0.026;5.78E-03;0;0.534;2.004;-10.453
-0.02;-5.06E-03;0;0.769;-1.41;-11.695
-4.90E-03;0.013;0;1.147;0.814;-11.065
0.018;4.84E-03;0;-1.524;-0.733;-7.65
0.035;0.035;0;0.611;-0.021;-7.983
-0.019;-0.01;0;-2.125;2.365;-7.69
0.021;0.028;0;0.498;1.399;-10.499
-1.78E-03;-0.024;0;-0.634;0.829;-11.339
0.027;-9.20E-03;0;0.65;-1.952;-12.138
-0.015;-0.012;0;1.486;2.104;-7.893
-1.14E-03;0.028;0;2.121;0.947;-8.189
5.94E-03;-0.016;0;2.204;0.539;-10.406
-0.011;0.012;0;-1.64;1.126;-9.523
5.95E-03;-8.65E-03;0;0.088;-0.831;-8.219
-3.42E-03;9.03E-03;0;-1.05;1.015;-10.8
-6.79E-03;-1.90E-03;0;8.15E-03;-2.199;-8.857
1.47E-03;1.08E-03;0;-1.989;2.15;-8.131
-0.011;-0.025;0;1.591;1.329;-10.78
0.022;4.61E-03;0;-1.109;1.918;-9.892
0.023;-0.021;0;-0.876;-1.135;-10.521
4.57E-03;-0.021;0;-2.348;1.596;-10.769
0.028;-0.017;0;-0.042;1.255;-10.686
0.029;0.024;0;-1.494;1.507;-12.127
-0.027;-0.016;0;-1.22;1.034;-7.353
-0.024;3.64E-03;0;2.159;-0.054;-10.723
0.02;-0.03;0;1.329;0.088;-9.887
7.67E-03;0.015;0;1.777;0.56;-10
-6.75E-03;0.023;0;1.279;-2.095;-9.2
4.95E-03;-0.021;0;-0.37;1.574;-9.651
-4.74E-03;0.012;0;-0.941;-0.839;-9.979
-0.022;-0.019;0;2.211;0.361;-8.442
-6.53E-03;0.016;0;-0.034;0.83;-9.26
-2.62E-03;0.019;0;2.082;1.21;-9.641
0.023;1.35E-03;0;-1.357;-1.676;-8.015
-1.91E-03;-1.11E-03;0;0.394;2.075;-11.172
0.019;0.029;0;-2.167;-0.307;-10.249
-5.20E-03;-0.026;0;1.409;1.045;-8.275
-3.87E-03;-0.03;0;1.17;0.883;-9.747
2.11E-03;-0.015;0;-0.681;-1.677;-10.05
-0.014;0.018;0;-0.908;2.394;-10.293
-6.24E-03;-0.021;0;-0.734;0.798;-11.112
-0.018;-0.028;0;-1.806;1.115;-7.408
-3.30E-03;0.025;0;1.511;0.198;-11.082
-0.026;-0.019;0;-2.267;-0.768;-11.062
-0.013;0.031;0;0.283;-0.801;-8.723
-9.38E-03;-0.014;0;2.063;2.425;-8.578
0.014;-4.31E-03;0;-1.657;-1.205;-10.555
0.015;0.015;0;1.549;1.192;-9.674
0.028;-0.014;0;2.285;2.082;-9.614
-0.022;-0.018;0;1.136;-1.152;-10.359
0.025;0.01;0;-0.392;0.637;-7.826
0.03;-8.22E-03;0;0.264;-1.687;-8.028
-7.61E-03;-0.015;0;-2.072;-1.367;-8.84
-1.25E-03;0.013;0;-1.485;1.623;-10.215
7.78E-03;0.022;0;2.412;2.428;-11.496
4.03E-03;-8.80E-03;0;-2.037;1.584;-10.723
0.025;-0.029;0;2.167;1.928;-7.71
-0.014;-0.01;0;-0.286;0.264;-10.194
-0.02;-0.015;0;0.309;1.241;-10.14
-0.023;0.03;0;-0.744;0.107;-11.554
0.015;0.029;0;-0.191;-0.056;-7.644
0.026;0.026;0;2.125;2.35;-9.735
-0.017;-0.023;0;-0.937;1.714;-8.524
-5.53E-03;0.013;0;2.044;1.796;-11.855
0.03;0.019;0;0.63;-0.294;-11.843
-8.46E-03;-3.41E-04;0;0.7;-1.792;-11.1
0.028;0.011;0;0.552;1.011;-9.152
0.02;-0.023;0;1.711;-1.05;-8.206
-0.026;-0.03;0;0.147;1.128;-10.737
-9.05E-03;0.01;0;0.262;-0.506;-8.571
2.24E-03;5.01E-03;0;-1.907;-0.385;-11.23
1.96E-03;0.024;0;1.918;-1.868;-11.978
1.13E-03;0.025;0;-0.125;1.503;-8.895
-0.011;-8.48E-03;0;0.753;-2.129;-9.503
-5.30E-03;-0.021;0;2.412;-0.493;-7.832
0.035;0.017;0;-1.638;-1.03;-9.389
0.028;0.023;0;0.555;1.788;-11.673
-0.022;0.019;0;-1.275;2.391;-10.307
-0.015;5.54E-03;0;2.116;-0.656;-10.103
9.70E-03;0.032;0;-2.016;-1.209;-11.101
-1.76E-03;0.024;0;1.979;0.286;-10.058
-0.028;-0.024;0;0.238;1.771;-9.085
0.023;-5.18E-03;0;-1.923;1.046;-11.976
0.026;0.033;0;1.525;-0.934;-8.673
-0.028;5.07E-03;0;-0.18;-2.276;-11.789
0.033;-0.031;0;1.914;0.578;-11.661
0.031;0.025;0;1.158;-1.038;-10.773
0.026;-0.025;0;2.308;-0.769;-10.932
-0.022;-0.024;0;-1.319;-0.656;-8.169
-0.013;-0.014;0;-2.175;-0.468;-11.771
0.034;-0.022;0;-1.908;-0.317;-11.578
-0.012;-4.72E-03;0;1.238;1.922;-11.245
0.02;-0.012;0;-1.893;-0.441;-11.195
0.024;0.026;0;-2.194;1.645;-7.9
0.012;-0.016;0;0.892;0.387;-10.581
0.011;-0.03;0;-0.427;0.795;-10.671
-0.018;0.03;0;-0.374;2.065;-11.96
-1.48E-05;4.27E-03;0;-0.506;0.937;-8.718
-0.018;-0.021;0;1.912;-2.161;-10.273
0.025;0.018;0;-1.693;-1.019;-10.471
8.22E-03;0.026;0;1.17;-1.508;-9.369
0.026;2.48E-03;0;0.624;1.794;-7.853
0.031;-1.60E-03;0;-1.989;-0.818;-8.793
-3.12E-03;-0.023;0;-0.652;0.502;-7.614
-1.44E-03;-0.02;0;-1.887;1.73;-8.201
0.014;0.02;0;-1.287;1.677;-9.757
-0.019;-0.022;0;2.108;0.892;-11.519
0.016;0.023;0;-1.102;-1.309;-7.724
-0.024;0.018;0;0.52;-0.654;-10.569
-0.014;0.012;0;2.157;-0.34;-10.487
0.011;-0.027;0;-1.155;-1.627;-12.006
0.02;-7.82E-03;0;1.844;0.053;-7.365
0.02;-0.011;0;-0.665;0.132;-10.376
-1.07E-03;0.02;0;-0.134;1.976;-10.347
0.031;4.16E-03;0;-1.805;2.158;-9.582
1.09E-04;-7.74E-03;0;-0.482;1.866;-8.183
0.029;0.024;0;1.664;0.738;-10.012
-0.024;-4.10E-03;0;6.33E-03;0.513;-10.303
0.025;-5.65E-03;0;-0.458;-1.764;-10.718
-0.027;0.035;0;2.116;0.425;-10.017
0.032;-0.016;0;0.555;2.174;-11.207
0.013;-0.018;0;-1.57;1.187;-11.398
8.47E-03;-2.27E-03;0;0.826;1.511;-9.366
-0.028;0.031;0;0.832;1.087;-11.814
-5.25E-04;-1.65E-04;0;-0.527;-0.718;-8.894
-0.011;-0.018;0;1.794;1.242;-7.562
0.018;-0.013;0;-0.121;0.501;-8.765
4.73E-05;9.19E-03;0;-0.921;1.275;-10.751
8.47E-03;-0.024;0;0.111;0.842;-12.105
-3.93E-03;-3.60E-03;0;-0.403;1.995;-10.265
-0.01;-1.64E-04;0;2.361;-0.016;-7.784
6.02E-03;0.024;0;2.257;-0.674;-9.164
0.034;-0.02;0;1.617;-1.39;-10.189
-4.99E-03;7.82E-03;0;0.52;-0.638;-8.88
-3.34E-03;-0.026;0;-2.138;-1.859;-9.507
0.02;0.027;0;-0.29;0.331;-10.056
0.035;-9.15E-03;0;1.63;0.645;-9.34
0.029;-3.10E-03;0;-1.551;0.203;-10.958
-0.022;0.012;0;0.292;-0.838;-8.782
-0.019;0.026;0;1.359;-0.262;-10.81
-0.011;8.91E-03;0;-0.884;-0.851;-9.628
-2.54E-04;-0.019;0;-1.997;2.033;-8.601
0.025;-1.03E-03;0;-1.265;-1.2;-11.618
-0.013;1.87E-03;0;-0.773;2.414;-9.517
0.033;-0.011;0;-0.998;-2.219;-9.073
-7.84E-03;0.013;0;-1.417;-1.447;-10.323
0.029;-0.014;0;1.453;0.583;-9.517
-0.028;-0.012;0;-1.937;0.243;-9.498
0.017;-3.49E-03;0;-0.605;2.332;-10.728
-0.03;3.23E-03;0;-0.532;1.419;-8.627
0.016;-0.013;0;-0.043;0.164;-9.687
0.011;-0.029;0;-0.294;-0.4;-7.611
0.02;-6.67E-03;0;-0.183;-1.233;-8.722
0.019;0.033;0;1.896;1.315;-8.259
-0.025;0.017;0;2.192;0.331;-10.574
-0.025;0.017;0;-1.145;-2.258;-9.588
0.03;-0.023;0;1.644;0.382;-10.968
0.024;0.028;0;-1.472;-1.874;-9.407
-0.017;3.14E-03;0;0.219;-1.032;-9.243
0.021;0.024;0;-0.125;-0.531;-9.925
0.035;0.014;0;0.723;0.609;-11.986
0.027;-9.59E-03;0;-1.629;-0.73;-8.316
0.014;3.29E-03;0;2.191;-1.952;-11.759
0.032;0.032;0;1.761;1.93;-8.427
0.022;0.033;0;1.025;-0.255;-12.005
0.025;-0.013;0;0.616;0.6;-10.533
-0.024;-0.026;0;-1.16;0.013;-8.124
0.022;0.024;0;-0.686;0.464;-10.524
-7.91E-03;-0.026;0;1.254;-0.184;-10.218
-0.025;0.028;0;-0.873;-2.051;-8.683
-0.026;0.034;0;-0.945;1.141;-7.892
0.025;0.023;0;0.555;1.05;-11.37
-2.87E-03;0.025;0;-2.314;1.262;-10.662
-0.028;-0.02;0;-1.653;0.488;-11.343
-3.47E-03;0.018;0;-0.026;1.143;-11.5
0.018;3.35E-03;0;-2.142;0.907;-11.781
0.012;0.03;0;-1.583;1.41;-11.868
-0.018;0.02;0;2.163;-2.199;-7.597
0.03;-0.015;0;2.134;0.143;-8.635
-4.27E-03;-0.024;0;-1.421;-0.253;-8.345
0.022;-0.026;0;0.966;-0.431;-9.14
-7.83E-03;1.49E-03;0;-0.236;0.883;-11.526
-5.17E-03;0.03;0;2.395;2.259;-8.442
5.64E-03;0.017;0;-0.199;-1.603;-10.561
8.61E-03;-0.03;0;0.514;-0.896;-9.435
-4.37E-03;0.029;0;1.378;-1.596;-8.748
-0.028;-0.026;0;-1.725;1.768;-10.255
8.93E-03;-1.07E-03;0;-1.474;-0.761;-8.109
0.023;-3.34E-03;0;-0.047;1.722;-10.814
-3.19E-03;-3.11E-04;0;-1.107;1.303;-11.717
-6.70E-03;0.016;0;-1.101;-0.092;-10.974
0.032;5.90E-03;0;-1.126;-1.177;-8.429
0.018;1.45E-03;0;-2.302;-1.272;-8.909
-0.024;0.034;0;0.389;-2.139;-7.462
-0.013;0.019;0;-0.71;-0.541;-10.642
8.80E-03;-0.021;0;1.841;1.524;-9.997
-0.025;0.023;0;1.339;-2.244;-11.221
9.17E-03;-1.40E-03;0;-0.825;1.893;-9.291
0.011;8.60E-03;0;-0.268;1.108;-11.413
-0.015;-0.015;0;1.681;1.342;-7.45
-0.014;0.01;0;-0.17;-1.594;-11.145
0.022;-0.013;0;2.313;1.814;-10.529
-0.01;0.035;0;-1.912;1.638;-9.91
0.011;-0.024;0;-1.496;-0.838;-9.337
0.028;-6.90E-03;0;-0.024;-1.46;-8.271
0.021;0.025;0;-1.552;-1.981;-8.584
-8.52E-03;-3.42E-03;0;-1.655;-1.292;-11.814
-0.011;-0.028;0;-1.745;-2.222;-10.789
0.03;0.019;0;2.227;2.373;-7.654
0.033;4.26E-03;0;-0.445;-1.19;-7.961
0.015;0.017;0;1.732;2.256;-11.002
0.025;8.80E-03;0;0.08;-1.285;-7.664
0.03;-0.023;0;2.312;1.526;-7.66
-0.013;0.034;0;-2.045;-1.104;-11.874
-0.011;-0.017;0;-0.364;-0.37;-10.146
-8.53E-03;-0.028;0;-0.088;0.865;-8.884
0.028;-0.021;0;-0.517;1.147;-10.052
0.032;0.026;0;2.05;-1.848;-12.048
4.13E-03;-0.026;0;1.985;-0.574;-10.67
-0.013;-0.011;0;0.664;0.912;-8.511
-0.01;-0.029;0;1.753;-0.238;-9.044
0.01;0.032;0;1.751;-1.856;-10.369
0.032;-0.022;0;0.115;0.234;-10.511
0.024;-0.021;0;0.197;0.38;-8.9
0.014;0.028;0;-0.711;-0.229;-7.391
0.021;8.48E-03;0;-1.796;0.46;-9.891
2.76E-03;-0.021;0;-1.245;-0.375;-9.698
5.73E-03;-0.03;0;0.31;0.052;-8.399
-5.28E-03;0.019;0;2.099;0.521;-11.452
8.31E-03;4.52E-03;0;1.671;2.031;-8.845
-0.021;-0.014;0;1.731;0.141;-9.319
-6.43E-03;0.026;0;-1.686;1.003;-11.285
0.031;0.017;0;-2.201;-2.016;-10.027
-0.022;-0.021;0;2.364;1.875;-12.074
0.015;0.035;0;-0.514;-2.136;-8.687
0.033;0.013;0;-0.373;-2.178;-11.857
8.96E-03;8.67E-03;0;-2.285;0.664;-9.077
0.033;-0.029;0;0.774;0.026;-11.824
-0.022;3.38E-03;0;1.653;1.624;-10.315
8.25E-03;-0.019;0;-1.47;-2.327;-10.378
-5.66E-03;0.031;0;-1.746;-0.769;-11.763
-0.023;0.031;0;1.34;-1.735;-9.997
-4.56E-03;-5.43E-03;0;-0.666;1.129;-8.665
-0.018;-0.025;0;-0.823;-2.11;-7.988
-4.27E-03;-8.68E-03;0;1.77;0.458;-11.106
-2.85E-03;-0.021;0;-1.686;-2.148;-9.754
-9.71E-03;4.86E-03;0;1.284;-0.599;-10.754
0.034;3.05E-03;0;-0.045;-0.969;-9.426
0.012;-0.013;0;0.769;0.455;-9.68
-0.016;-0.019;0;1.874;-0.951;-10.13
-0.023;0.021;0;-0.208;-1.069;-11.68
-0.013;0.032;0;-1.126;0.499;-9.528
-0.024;-0.023;0;2.376;-1.826;-8.671
-6.15E-04;0.028;0;-1.245;-2.347;-8.453
-0.017;5.28E-03;0;0.854;-0.74;-11.62
0.022;2.19E-03;0;0.754;-2.028;-11.573
-0.018;0.018;0;1.731;1.1;-9.543
-0.021;0.028;0;1.197;-2.254;-10.579
-6.79E-03;-0.022;0;-1.526;1.164;-11.791
-6.01E-03;8.00E-03;0;2.191;1.861;-10.179
0.018;-9.48E-03;0;0.441;-0.908;-9.102
-0.017;-2.07E-03;0;1.56;2.205;-10.481
-0.012;-0.017;0;-1.181;-1.773;-8.611
0.03;0.03;0;2.347;-0.113;-10.847
-0.022;8.02E-03;0;-1.994;-2.286;-11.981
0.015;0.01;0;0.85;0.225;-11.298
3.54E-03;0.022;0;-1.869;-0.951;-10.091
0.022;0.032;0;1.136;-1.63;-9.25
-0.031;-3.61E-04;0;-0.545;0.488;-7.679
-8.05E-03;0.034;0;0.585;-0.111;-10.933
0.023;5.64E-03;0;0.873;-1.61;-11.969
0.017;7.03E-03;0;-0.801;-1.972;-11.987
-0.021;-0.028;0;0.761;-2.239;-8.281
0.01;-2.60E-03;0;1.276;0.064;-9.884
0.019;-2.60E-03;0;1.242;-1.821;-10.497
0.02;-5.69E-03;0;-0.31;0.417;-7.451
-0.029;-0.03;0;0.083;0.638;-7.469
0.033;0.011;0;-2.1;-2.259;-7.656
0.025;0.021;0;0.119;1.49;-8.621
0.034;-0.024;0;2.25;1.749;-11.82
-7.80E-03;-9.19E-03;0;1.209;-0.203;-9.832
7.41E-03;0.016;0;1.216;1.985;-11.794
0.029;0.021;0;-0.202;-1.305;-10.739
-0.011;7.72E-03;0;-1.221;-1.861;-7.487
-8.70E-03;-7.21E-03;0;-0.439;-1.776;-10.306
-6.08E-04;-0.011;0;-1.615;1.624;-11.462
0.031;-0.017;0;0.506;-1.297;-10.855
0.018;0.033;0;-0.139;2.254;-9.472
-0.022;-3.78E-03;0;-1.146;-2.327;-10.268
0.029;-0.025;0;1.922;2.027;-11.714
-0.012;0.013;0;-1.263;-0.513;-7.768
-0.022;-2.46E-03;0;0.489;-0.719;-9.861
0.015;6.97E-03;0;0.713;1.347;-7.785
-7.87E-03;5.65E-03;0;-0.491;1.206;-8.274
-0.02;-0.025;0;1.803;-1.112;-8.848
-0.023;-0.019;0;0.478;0.841;-11.776
-0.026;0.033;0;0.892;-0.836;-10.106
5.71E-03;-0.012;0;1.742;1.361;-8.586
0.011;0.02;0;0.924;2.404;-7.972
6.54E-03;0.027;0;-2.161;-0.253;-8.661
0.035;-6.13E-03;0;1.734;-1.922;-10.697
-0.016;9.28E-04;0;0.35;-1.8;-7.798
0.029;4.29E-03;0;-0.999;-0.863;-9.726
-0.01;-9.02E-03;0;-1.625;-1.314;-9.841
0.025;-0.016;0;2.377;1.332;-7.732
0.032;0.035;0;0.328;0.891;-11.011
0.034;5.80E-03;0;1.737;2.036;-8.545
-8.05E-03;0.021;0;-1.77;2.229;-11.393
-0.026;0.033;0;0.395;-0.874;-11.179
6.28E-03;9.01E-03;0;0.987;0.957;-10.47
0.019;-8.93E-03;0;0.94;-1.4;-9.315
-8.47E-03;-8.11E-03;0;1.903;1.048;-8.49
0.033;0.024;0;0.042;-0.46;-9.614
0.026;0.02;0;-1.96;0.643;-9.01
-1.60E-03;-0.021;0;-1.911;-0.464;-7.707
4.17E-03;0.029;0;-1.206;1.185;-10.737
0.015;0.03;0;-1.746;-1.222;-12.156
0.012;0.017;0;1.907;-0.169;-8.063
-5.42E-03;0.028;0;0.863;-2.121;-11.981
-0.03;-2.99E-03;0;-0.764;2.251;-7.639
0.025;0.018;0;1.317;1.273;-11.678
-0.012;0.028;0;0.145;-0.828;-8.273
-0.017;-0.019;0;2.241;2.021;-10.106
-6.29E-03;9.10E-03;0;0.226;1.466;-9.184
-0.011;-0.028;0;0.05;-1.662;-8.713
-2.71E-03;0.021;0;-1.412;0.224;-8.319
-1.45E-03;-0.029;0;-0.143;-1.565;-11.993
0.019;0.028;0;1.033;-0.503;-7.7
2.23E-03;-0.025;0;-0.312;1.498;-9.52
-9.52E-03;-0.017;0;1.799;-2.236;-11.535
-6.44E-03;0.015;0;-2.06;-2.07;-8.198
-0.018;0.027;0;1.37;-1.512;-10.025
-0.031;-0.014;0;-1.319;0.71;-7.925
-6.84E-03;0.023;0;0.134;-2.047;-11.516
-4.31E-03;0.033;0;1.435;1.979;-8.552
1.38E-03;-0.026;0;1.382;1.888;-10.183
5.08E-03;-0.027;0;-1.866;1.297;-8.624
-0.027;-0.025;0;1.868;-0.164;-9.558
0.018;0.033;0;2.313;-0.306;-11.683
-0.014;-0.023;0;-1.381;1.666;-8.333
-6.55E-03;5.16E-04;0;-1.358;0.194;-10.228
-7.63E-03;0.016;0;-0.171;-2.122;-11.07
-1.99E-03;-0.026;0;1.332;0.261;-11.194
5.31E-03;-0.017;0;1.236;0.975;-8.684
-0.031;0.019;0;-1.089;-2.353;-10.539
-4.95E-03;-0.016;0;2.324;0.722;-10.577
0.023;-1.03E-04;0;-2.04;-0.134;-9.653
0.013;-0.026;0;-0.265;0.163;-10.798
-8.44E-03;6.82E-04;0;1.002;1.103;-10.023
6.55E-03;-0.02;0;-1.429;-1.125;-8.555
-0.01;0.025;0;1.316;-1.494;-11.552
1.91E-03;-0.015;0;-1.807;-0.995;-8.713
-0.018;-0.025;0;-1.858;2.051;-8.674
0.035;3.57E-03;0;-1.967;1.492;-12.058
9.98E-03;0.013;0;-0.34;-0.635;-9.651
-0.02;0.014;0;-0.783;0.745;-7.481
-0.024;0.021;0;-2.008;-2.058;-10.693
-8.24E-03;5.48E-03;0;-0.538;-1.951;-9.497
-0.014;0.014;0;-1.02;0.387;-7.989
-0.029;0.021;0;0.323;-1.298;-9.068
0.011;0.014;0;-0.358;1.478;-8.128
-0.025;-0.03;0;0.187;-1.263;-10.915
4.75E-03;0.029;0;0.889;2.067;-9.426
-0.023;0.028;0;1.729;-1.661;-10.871
0.032;4.01E-03;0;1.254;-1.163;-10.79
-0.027;0.019;0;2.407;-0.259;-9.555
0.024;0.028;0;1.557;-2.184;-11.01
0.027;0.032;0;1.526;-2.138;-12.047
0.027;0.012;0;-0.107;1.027;-11.867
-3.57E-03;0.015;0;2.056;-1.608;-8.913
-0.014;-6.84E-03;0;2.057;-0.217;-11.957
-9.51E-03;0.015;0;2.274;-0.53;-8.42
-0.019;-8.80E-03;0;-2.032;0.903;-9.433
-0.031;-0.024;0;-1.303;0.511;-9.542
0.021;-3.64E-03;0;1.287;-0.821;-10.21
9.16E-03;-0.017;0;0.162;-1.634;-9.632
-3.63E-03;7.19E-03;0;1.863;-0.709;-11.715
-0.029;-4.73E-03;0;2.419;0.709;-8.467
9.59E-03;0.022;0;0.303;0.503;-11.63
0.027;0.022;0;0.016;2.424;-11.211
0.032;-0.018;0;-1.671;-0.745;-11.728
-0.016;-0.019;0;-0.742;-1.854;-11.221
0.035;0.024;0;-1.149;-0.102;-8.525
6.63E-03;-0.011;0;-1.549;0.769;-8.121
4.31E-03;-8.79E-03;0;-0.013;2.176;-8.177
-0.015;0.015;0;0.161;-0.338;-8.432
-2.19E-03;4.22E-03;0;-1.502;-1.052;-9.267
-0.026;0.015;0;-2.324;1.464;-11.295
-0.022;-8.66E-03;0;1.291;0.825;-10.13
2.35E-03;0.018;0;0.396;0.68;-8.288
-0.015;-0.019;0;-2.039;1.056;-8.413
0.018;-0.023;0;1.869;-1.104;-9.504
-0.018;0.034;0;-1.208;-1.733;-11.048
-1.76E-03;0.02;0;-1.526;1.567;-9.514
2.74E-04;-0.014;0;-0.155;8.37E-03;-7.911
-0.012;-6.40E-03;0;0.933;0.643;-11.135
-0.014;-0.024;0;-1.222;-0.266;-9.085
-0.026;8.20E-03;0;2.427;1.751;-11.01
-0.018;0.021;0;-0.043;-0.817;-7.647
8.71E-03;5.28E-03;0;-0.678;-1.534;-12.061
0.031;0.01;0;-2.122;1.489;-11.163
0.035;-0.014;0;-0.546;0.455;-10.062
-0.015;0.032;0;-2.343;-1.086;-8.625
0.025;-0.011;0;-1.405;-1.216;-9.786
-9.57E-03;0.025;0;-0.884;0.72;-11.207
0.012;-1.96E-03;0;-0.54;-0.768;-8.373
-0.018;-0.016;0;-1.609;0.075;-9.529
-0.03;-9.42E-03;0;1.001;2.074;-10.967
0.015;-0.012;0;0.926;2.434;-9.846
-0.023;-0.022;0;-1.311;1.498;-11.477
0.028;0.018;0;-1.201;-0.141;-11.094
0.025;-0.014;0;0.452;-1.504;-8.304
0.014;0.018;0;2.395;-0.692;-8.268
0.639;0.02;0;-1.973;-0.627;-11.938
0.639;-0.022;0;-2.336;-1.163;-9.07
0.633;0.034;0;-0.677;-1.223;-8.499
0.674;0.023;0;0.682;1.156;-9.892
0.677;0.012;0;-0.919;0.861;-9.19
0.633;0.019;0;-0.955;0.598;-9.406
0.635;-0.016;0;-1.777;0.31;-10.335
0.687;0.019;0;-0.128;-0.07;-10.624
0.677;0.02;0;2.057;1.521;-8.364
0.658;-0.021;0;-2.006;-1.488;-7.997
0.628;0.013;0;1.981;-2.591;-9.819
0.65;0.017;0;2.387;-2.529;-11.348
0.65;-0.025;0;0.631;0.304;-7.682
0.617;-0.028;0;1.71;-2.317;-11.882
0.624;-0.015;0;-1.401;-1.43;-8.299
0.671;-3.39E-03;0;2.21;-2.363;-9.376
0.66;-0.025;0;-2.143;-1.319;-8.096
0.612;0.014;0;-0.369;0.641;-10.571
0.628;-0.03;0;-2.308;-2.478;-9.185
0.63;-0.026;0;-0.859;-0.028;-7.337
0.622;0.019;0;-0.162;-3.432;-11.497
0.661;-2.92E-03;0;-2.184;-0.49;-8.058
0.642;-0.013;0;-1.386;-1.106;-8.049
0.604;0.022;0;0.423;-8.59E-03;-10.634
0.66;0.027;0;1.583;-0.336;-7.518
0.63;0.028;0;2.251;-1.178;-9.771
0.642;-0.026;0;-1.138;-2.379;-9.772
0.644;-7.26E-03;0;0.148;-3.932;-8.688
0.618;0.022;0;-1.288;-0.244;-11.41
0.598;-8.37E-03;0;-0.852;-3.126;-7.721
0.631;-0.022;0;-0.542;-1.401;-10.231
0.591;-0.012;0;-1.081;-1.868;-7.258
0.602;1.95E-03;0;0.951;0.086;-8.772
0.579;2.88E-03;0;-0.452;-2.279;-11.916
0.596;-0.022;0;-2.278;-0.305;-9.845
0.571;-5.46E-03;0;1.271;-0.293;-10.879
0.61;-0.027;0;-0.633;-0.739;-9.058
0.597;0.021;0;-0.811;-3.856;-7.864
0.615;-8.83E-03;0;1.073;-4.217;-10.881
0.587;6.30E-03;0;0.485;-0.174;-8.31
0.588;3.62E-03;0;-2.101;-3.81;-10.738
0.592;0.018;0;-2.134;-1.948;-8.425
0.593;0.01;0;-0.628;-0.997;-8.167
0.538;-0.023;0;-1.151;-2.098;-9.06
0.578;-0.028;0;-1.388;-3.174;-7.931
0.551;-0.024;0;1.366;-0.563;-7.705
0.556;0.03;0;1.553;-1.665;-11.64
0.522;-6.23E-03;0;0.875;-4.785;-10.804
0.557;4.86E-03;0;-1.623;-1.327;-9.646
0.524;-0.025;0;1.17;-4.029;-10.071
0.501;0.032;0;1.958;-2.113;-9.409
0.508;9.13E-03;0;-1.285;-1.804;-8.268
0.501;0.012;0;1.77;-3.676;-9.161
0.541;0.034;0;-0.781;-0.792;-9.288
0.543;-3.95E-03;0;1.346;-5.508;-10.742
0.49;9.93E-04;0;-2.177;-5.325;-9.923
0.474;-0.027;0;2.127;-1.576;-9.278
0.478;-0.01;0;0.837;-3.095;-9.119
0.481;-1.51E-03;0;0.871;-4.435;-10.326
0.472;0.021;0;1.172;-5.582;-9.608
0.479;-0.018;0;-1.953;-1.65;-7.319
0.488;-0.018;0;-0.162;-3.125;-8.471
0.457;0.01;0;-2.15;-4.498;-8.421
0.477;2.95E-03;0;0.06;-5.438;-9.236
0.458;-6.60E-03;0;2.086;-5.224;-7.16
0.459;-0.017;0;-0.913;-4.286;-8.775
0.445;-0.021;0;-2.231;-2.859;-9.974
0.443;-3.63E-03;0;0.391;-5.083;-10.849
0.462;-0.019;0;-1.62;-5.188;-10.242
0.418;5.93E-03;0;-0.779;-2.583;-9.947
0.422;7.30E-03;0;-0.766;-3.43;-7.513
0.419;0.024;0;-2.136;-4.157;-6.874
0.438;-2.93E-03;0;-1.796;-5.099;-9.574
0.374;7.80E-03;0;-1.23;-4.675;-9.36
0.379;0.02;0;-0.032;-6.224;-10.31
0.378;0.031;0;-1.766;-2.068;-7.031
0.374;-0.016;0;1.195;-2.822;-10.791
0.38;0.021;0;0.908;-5.653;-8.617
0.336;-6.61E-03;0;-0.205;-4.521;-9.246
0.327;-4.51E-03;0;0.922;-6.122;-10.558
0.345;0.017;0;1.648;-6.022;-8.128
0.35;-0.029;0;-2.045;-3.487;-8.916
0.337;2.74E-03;0;0.618;-4.266;-7.179
0.305;-8.62E-03;0;-1.157;-4.204;-10.289
0.304;0.03;0;1.411;-2.589;-6.681
0.309;-8.35E-03;0;0.956;-2.045;-9.416
0.322;-0.03;0;-1.406;-3.201;-9.039
0.276;0.016;0;-0.729;-2.951;-9.348
0.306;-0.021;0;0.557;-6.174;-9.199
0.261;0.027;0;-1.051;-2.699;-8.609
0.299;0.031;0;2.136;-6.669;-10.142
0.245;-0.029;0;-1.572;-6.44;-7.193
0.294;0.015;0;-0.537;-3.783;-10.698
0.285;-5.91E-03;0;1.76;-3.748;-8.691
0.264;-5.08E-03;0;-1.15;-3.133;-6.712
0.266;7.02E-03;0;1.151;-2.685;-7.901
0.233;0.03;0;-2.105;-2.509;-10.497
0.255;-0.03;0;-1.926;-2.833;-8.525
0.228;0.029;0;1.181;-5.215;-9.429
0.208;0.019;0;-0.915;-6.021;-7.417
0.207;0.017;0;0.693;-2.366;-8.03
0.187;4.71E-03;0;1.834;-2.37;-9.217
0.187;-0.03;0;-2.274;-2.393;-7.088
0.147;-0.026;0;-1.242;-6.348;-7.841
0.147;-6.43E-03;0;1.234;-5.77;-6.473
0.141;0.024;0;-0.505;-3.556;-8.272
0.129;-7.20E-03;0;-2.326;-3.227;-10.187
0.116;-5.75E-03;0;-1.42;-3.097;-10.692
0.108;0.019;0;0.334;-5.991;-9.752
0.154;0.027;0;0.025;-3.385;-6.38
0.123;-0.03;0;0.15;-3.687;-6.175
0.144;-3.55E-03;0;1.291;-3.749;-8.359
0.108;0.029;0;-1.878;-2.641;-8.148
0.121;-0.03;0;0.193;-4.282;-7.578
0.107;-0.012;0;-1.003;-6.549;-9.047
0.06;0.027;0;-0.632;-6.126;-7.407
0.061;-0.03;0;2.132;-5.756;-10.159
0.045;0.015;0;-0.287;-2.701;-8.007
0.033;0.03;0;-1.015;-5.338;-6.184
0.047;0.019;0;0.699;-2.918;-6.814
0.067;0.022;0;-1.259;-4.411;-10.068
0.04;-2.80E-04;0;-1.02;-4.773;-6.893
0.028;5.58E-03;0;0.168;-4.928;-9.146
0.028;-0.024;0;-1.631;-3.633;-8.052
-0.01;-0.022;0;-1.48;-5.652;-6.596
0.027;-3.99E-04;0;-1.404;-6.488;-6.12
-1.30E-03;0.011;0;-1.535;-6.691;-6.52
3.71E-03;-0.021;0;-0.07;-6.675;-8.948
-2.77E-03;-0.019;0;1.661;-4.316;-10.125
-0.014;-0.019;0;0.705;-5.739;-7.99
-0.027;0.019;0;-2.34;-6.258;-6.305
-0.042;0.019;0;0.798;-3.269;-10.166
-0.071;0.027;0;-1.139;-3.933;-9.674
-0.097;0.014;0;-2.293;-2.936;-6.384
-0.05;-0.017;0;-0.83;-3.907;-9.187
-0.089;-6.25E-03;0;-2.099;-3.618;-10.261
-0.119;0.02;0;-1.957;-6.979;-10.167
-0.126;-0.023;0;1.233;-4.632;-9.76
-0.102;-0.023;0;-1.584;-3.531;-8.861
-0.129;-0.018;0;0.329;-3.57;-8.557
-0.111;-0.019;0;7.09E-04;-3.33;-10.223
-0.166;0.016;0;0.812;-6.119;-9.476
-0.148;0.021;0;2.234;-4.99;-9.774
-0.125;0.024;0;-1.484;-2.367;-6.22
-0.165;0.026;0;-0.118;-4.979;-6.978
-0.156;-0.028;0;1.263;-5.863;-8.808
-0.172;-2.67E-03;0;0.015;-4.285;-9.421
-0.212;-9.90E-03;0;-2.276;-4.166;-10.324
-0.222;0.03;0;0.091;-6.849;-8.729
-0.199;0.017;0;-0.615;-3.722;-6.883
-0.232;-2.71E-03;0;-0.868;-6.344;-7.674
-0.202;-2.69E-03;0;0.447;-3.332;-7.288
-0.226;-0.02;0;0.951;-3.485;-7.304
-0.219;2.72E-04;0;0.92;-2.169;-9.676
-0.223;0.021;0;-0.309;-2.359;-9.505
-0.272;2.52E-04;0;0.233;-6.392;-6.608
-0.272;0.025;0;-2.013;-3.947;-6.327
-0.272;3.65E-03;0;0.852;-5.707;-10.34
-0.285;-0.028;0;-0.083;-2.998;-6.68
-0.289;-4.53E-03;0;1.345;-4.112;-10.679
-0.272;0.014;0;0.231;-6.436;-9.222
-0.289;3.61E-06;0;-0.84;-4.063;-11.015
-0.319;7.20E-03;0;-1.462;-2.53;-10.525
-0.307;-0.011;0;1.766;-4.266;-6.853
-0.316;-5.22E-03;0;2.262;-4.781;-10.209
-0.328;-3.25E-03;0;-0.852;-6.461;-9.171
-0.343;-0.016;0;-1.026;-3.621;-10.783
-0.311;-0.014;0;2.044;-4.909;-10.573
-0.359;3.47E-03;0;1.315;-2.721;-7.552
-0.343;6.82E-03;0;-2.034;-1.977;-10.999
-0.355;-9.70E-03;0;0.906;-1.886;-9.585
-0.333;9.28E-03;0;1.517;-4.321;-10.558
-0.4;0.011;0;1.763;-2.36;-10.184
-0.383;-0.022;0;-1.849;-4.626;-9.345
-0.373;-0.023;0;-1.548;-2.28;-10.35
-0.412;8.00E-03;0;1.151;-4.319;-8.333
-0.378;0.029;0;2.189;-5.237;-8.879
-0.372;0.012;0;1.757;-5.313;-7.92
-0.386;4.74E-03;0;-0.62;-4.848;-9.694
-0.396;-0.012;0;-1.44;-2.173;-7.879
-0.44;-0.025;0;-1.34;-1.979;-8.126
-0.4;0.013;0;1.466;-3.696;-10.045
-0.409;-8.63E-03;0;-1.952;-3.084;-6.76
-0.444;-0.03;0;-0.745;-4.741;-8.295
-0.454;0.029;0;-0.558;-3.417;-8.114
-0.449;0.021;0;2.358;-4.598;-10.411
-0.447;0.011;0;-1.783;-4.542;-10.751
-0.449;-0.023;0;0.857;-2.349;-9.072
-0.494;0.013;0;-1.769;-2.598;-8.962
-0.499;-0.022;0;2.21;-3.008;-9.07
-0.5;0.022;0;-0.784;-1.549;-8.198
-0.495;-0.031;0;-1.674;-3.363;-8.761
-0.498;-2.04E-03;0;2.083;-2.292;-8.329
-0.477;-0.022;0;2.442;-0.919;-9.197
-0.485;0.019;0;-1.678;-2.63;-10.15
-0.491;0.016;0;0.627;-4.464;-11.448
-0.507;-3.93E-04;0;-1.355;-2.247;-6.847
-0.503;0.017;0;1.641;-3.147;-8.249
-0.515;9.42E-03;0;-0.241;-4.429;-11.03
-0.509;0.019;0;1.112;-2.38;-7.4
-0.54;-0.029;0;2.101;-3.86;-6.932
-0.529;0.025;0;0.501;-1.721;-11.349
-0.574;0.015;0;1.455;-5.103;-8.184
-0.573;-7.57E-03;0;-2.22;-3.826;-9.584
-0.582;0.014;0;-0.021;-3.437;-9.805
-0.536;-3.70E-04;0;-1.056;-1.743;-9.23
-0.551;0.033;0;-1.969;-1.479;-10.014
-0.551;-0.025;0;0.925;-4.784;-11.471
-0.542;0.02;0;-2.105;-2.879;-10.695
-0.587;0.024;0;-0.137;-2.177;-7.237
-0.588;0.019;0;0.013;-3.653;-8.651
-0.548;0.027;0;-0.688;-1.648;-10.347
-0.591;2.14E-03;0;-1.194;-4.143;-11.485
-0.574;-0.018;0;0.238;-3.682;-9.28
-0.608;0.033;0;1.957;-4.506;-8.52
-0.623;-9.75E-03;0;0.27;-0.546;-9.576
-0.606;-0.02;0;-1.516;-1.895;-7.505
-0.621;0.022;0;-1.524;-0.214;-9.585
-0.608;8.26E-03;0;0.468;-0.309;-9.835
-0.601;3.56E-03;0;-0.521;-0.844;-9.461
-0.585;0.033;0;2.021;-3.215;-10.991
-0.583;-5.61E-03;0;-1.246;-2.483;-11.494
-0.601;7.54E-03;0;-0.418;0.097;-9.514
-0.602;-0.022;0;0.628;-0.866;-10.718
-0.647;-0.031;0;-1.129;-2.222;-10.238
-0.595;0.033;0;-2.077;-1.917;-10.808
-0.598;-0.021;0;-1.269;-3.234;-9.918
-0.603;0.027;0;-1.576;-1.823;-11.335
-0.663;0.023;0;2.195;-0.977;-8.679
-0.66;-0.029;0;-1.733;-0.125;-10.979
-0.63;-2.14E-03;0;1.74;-2.128;-11.353
-0.649;-2.55E-03;0;1.855;-0.317;-11.255
-0.67;-0.017;0;-1.335;0.262;-9.28
-0.609;-0.027;0;-1.989;-2.904;-7.654
-0.614;1.75E-03;0;-1.223;-3.287;-7.583
-0.64;0.013;0;1.576;-3.086;-10.435
-0.654;-3.15E-03;0;1.022;0.17;-11.558
-0.642;3.47E-03;0;-1.928;-2.838;-9.876
-0.658;0.018;0;-1.815;-1.424;-8.384
-0.618;-0.014;0;1.584;-1.48;-9.922
-0.645;0.02;0;1.489;0.09;-11.593
-0.64;-0.023;0;0.979;1.461;-11.411
-0.677;0.014;0;2.429;1.342;-7.416
-0.634;0.015;0;-0.179;-1.831;-11.115
-0.653;9.18E-03;0;-0.907;-0.042;-9.864
-0.651;3.41E-03;0;2;-2.481;-8.343
-0.65;-0.022;0;0.26;1.927;-10.778
-0.661;0.011;0;-0.574;-1.128;-8.43
-0.645;9.27E-03;0;-0.052;0.837;-7.66
-0.686;-5.20E-03;0;1.283;1.045;-10.058
-0.651;0.013;0;-0.851;-0.281;-10.898
-0.674;0.013;0;-2.257;0.641;-8.99
-0.633;5.66E-03;0;0.109;-0.354;-11.305
-0.628;0.024;0;-1.413;-1.174;-9.969
-0.653;7.68E-03;0;1.831;1.814;-11.477
-0.644;-1.55E-03;0;1.181;-0.433;-12.07
-0.662;-5.67E-03;0;-0.928;0.099;-10.546
-0.639;-0.017;0;-0.585;-0.814;-12.127
-0.648;-0.021;0;-0.921;1.219;-7.389
-0.633;-0.022;0;-1.398;-1.676;-10.763
-0.652;0.013;0;0.661;1.426;-8.014
-0.617;-0.011;0;-1.07;2.521;-7.95
-0.666;-0.014;0;-2.079;0.114;-10.832
-0.678;-9.59E-03;0;-0.993;-0.768;-11.082
-0.672;-1.49E-03;0;1.289;3.309;-8.428
-0.625;0.027;0;1.305;2.482;-8.846
-0.641;-5.92E-05;0;-1.205;1.275;-8.383
-0.635;-0.013;0;-1.075;-0.863;-10.792
-0.661;-1.28E-03;0;-0.75;3.009;-10.801
-0.632;0.011;0;2.437;3.384;-9.725
-0.65;-5.54E-03;0;-1.471;1.289;-7.59
-0.605;2.93E-03;0;-0.337;0.505;-10.1
-0.653;0.014;0;1.018;-0.895;-8.458
-0.618;2.80E-03;0;-1.512;0.958;-8.394
-0.598;-5.24E-04;0;-0.064;4.58E-03;-9.645
-0.602;0.025;0;2.331;0.287;-10.92
-0.647;-5.79E-03;0;0.487;1.836;-11.293
-0.605;-8.22E-03;0;1.035;3.362;-8.735
-0.604;-0.022;0;-0.818;2.164;-9.108
-0.596;0.018;0;-0.133;-0.182;-9.528
-0.587;-5.99E-03;0;-1.51;1.991;-8.524
-0.577;0.032;0;1.155;1.119;-7.653
-0.633;-7.82E-03;0;-1.018;1.611;-11.046
-0.595;-0.028;0;-0.304;2.088;-11.459
-0.574;0.021;0;0.071;4.086;-11.382
-0.59;6.75E-03;0;-2.207;1.349;-9.063
-0.572;1.38E-03;0;-0.429;0.948;-7.92
-0.57;-0.023;0;0.126;1.216;-10.94
-0.602;-0.023;0;-0.853;3.666;-7.461
-0.585;0.011;0;-0.903;1.31;-7.235
-0.54;9.71E-03;0;1.084;4.165;-7.546
-0.555;-8.12E-03;0;2.203;2.554;-11.794
-0.588;0.017;0;-1.385;4.855;-9.403
-0.574;0.034;0;1.518;2.201;-11.605
-0.584;-0.022;0;-1.865;1.437;-11.179
-0.525;0.034;0;-0.681;1.341;-8.075
-0.519;0.013;0;-1.38;1.266;-10.461
-0.535;-3.49E-03;0;-0.444;0.731;-7.275
-0.539;0.026;0;0.225;3.815;-9.026
-0.509;-3.78E-03;0;2.287;1.607;-10.981
-0.5;0.026;0;1.039;1.967;-10.347
-0.551;0.011;0;2.116;1.716;-9.872
-0.535;-8.37E-03;0;1.079;2.796;-7.607
-0.487;0.02;0;-1.092;3.244;-11.466
-0.52;0.02;0;1.355;1.571;-10.448
-0.524;3.77E-03;0;-2.214;3.644;-8.027
-0.482;0.016;0;-2.145;3.799;-7.238
-0.516;0.033;0;1.876;5.281;-8.35
-0.518;-0.012;0;1.552;4.997;-7.235
-0.462;0.027;0;-1.164;5.26;-9.815
-0.455;0.021;0;-2.264;3.77;-11.363
-0.449;0.032;0;2.337;1.369;-10.591
-0.494;-0.022;0;0.786;5.98;-7.902
-0.473;-5.73E-03;0;0.487;4.351;-10.472
-0.464;0.012;0;2.288;4.228;-10.053
-0.474;0.011;0;2.173;5.894;-8.91
-0.462;2.99E-03;0;2.275;5.82;-10.56
-0.407;-0.02;0;-0.331;3.13;-11.197
-0.454;9.54E-04;0;-1.576;2.084;-9.762
-0.447;0.024;0;7.25E-03;4.987;-8.114
-0.445;-0.015;0;-2.04;5.106;-6.656
-0.397;1.65E-03;0;1.165;5.818;-7.299
-0.427;0.03;0;-0.746;6.295;-8.415
-0.391;0.027;0;-1.749;5.48;-9.531
-0.373;-0.016;0;-1.775;2.047;-10.434
-0.383;-0.03;0;1.515;3.602;-8.197
-0.394;0.012;0;0.192;3.448;-7.141
-0.367;-1.63E-03;0;2.329;3.941;-10.884
-0.365;-0.015;0;0.939;2.211;-9.687
-0.344;-9.52E-03;0;-1.236;4.658;-7.543
-0.375;-2.79E-03;0;-0.624;2.056;-10.591
-0.332;0.023;0;-2.32;5.581;-9.158
-0.314;-0.016;0;0.746;6.042;-10.835
-0.296;0.025;0;-0.799;3.491;-9.233
-0.302;4.97E-03;0;0.645;6.546;-11.038
-0.288;2.87E-05;0;0.662;6.509;-6.486
-0.311;0.023;0;0.162;2.985;-10.107
-0.277;-0.019;0;1.87;4.948;-8.343
-0.307;4.95E-03;0;-0.892;2.675;-9.121
-0.291;-0.023;0;0.698;6.636;-9.409
-0.253;-0.011;0;-1.553;5.862;-10.98
-0.298;0.021;0;-0.7;6.775;-8.727
-0.24;-4.55E-03;0;2.149;2.425;-8.759
-0.222;-0.027;0;0.365;5.145;-7.117
-0.214;-0.029;0;1.493;5.34;-10.985
-0.209;-0.027;0;-0.732;3.206;-9.964
-0.233;-0.028;0;-0.634;4.174;-10.26
-0.202;0.029;0;-0.394;2.58;-10.374
-0.2;-0.027;0;-0.124;3.111;-10.733
-0.2;0.015;0;0.299;4.768;-6.929
-0.181;-0.014;0;1.611;2.744;-6.432
-0.19;0.018;0;0.966;4.728;-6.919
-0.214;-0.012;0;1.586;3.609;-6.727
-0.149;6.22E-03;0;-2.202;7.022;-6.784
-0.18;0.032;0;0.113;6.057;-10.547
-0.144;6.91E-03;0;2.211;4.277;-6.404
-0.152;0.027;0;-0.742;2.727;-6.401
-0.143;0.027;0;1.616;4.359;-10.521
-0.156;0.024;0;-0.498;5.519;-10.384
-0.099;-0.014;0;0.368;2.728;-6.612
-0.147;-0.023;0;1.704;7.174;-7.707
-0.108;0.018;0;-2.282;5.61;-7.121
-0.129;-3.99E-03;0;-0.232;5.902;-7.016
-0.084;0.016;0;2.372;5.269;-10.75
-0.095;0.013;0;-0.063;2.765;-10.558
-0.077;-0.025;0;-1.81;3.378;-9.179
-0.054;-2.97E-03;0;-0.754;4.136;-8.509
-0.079;2.68E-03;0;-0.943;3.028;-9.293
-0.076;-0.025;0;2.313;6.221;-7.221
-0.041;0.034;0;1.716;2.862;-9.802
-0.032;8.34E-03;0;-0.596;3.571;-7.414
-0.019;0.032;0;-1.362;5.208;-8.092
-0.023;0.027;0;-0.648;3.414;-9.387
-0.033;-1.00E-02;0;-0.889;4.415;-9.827
0.03;0.021;0;1.819;5.984;-9.327
0.036;-7.90E-03;0;-0.499;5.71;-6.612
0.03;0.017;0;-2.327;4.78;-6.12
8.64E-03;0.027;0;-0.106;7.127;-9.569
0.055;5.00E-03;0;2.15;5.413;-6.766
0.015;0.026;0;-1.553;4.453;-8.015
0.066;-0.012;0;-1.954;6.391;-6.542
0.068;0.017;0;-1.829;4.604;-8.394
0.057;0.034;0;0.336;3.003;-8.937
0.042;2.97E-03;0;0.739;6.45;-8.215
0.088;-0.013;0;-0.727;5.711;-8.607
0.106;-0.024;0;-1.999;6.579;-7.292
0.09;-0.027;0;-1.829;4.435;-7.201
0.137;0.022;0;-1.701;3.464;-7.16
0.085;0.027;0;-0.926;4.73;-9.33
0.139;1.94E-03;0;2.111;4.641;-9.642
0.098;-0.015;0;-1.316;4.739;-10.845
0.144;3.16E-04;0;-2.218;5.535;-8.7
0.156;0.013;0;1.579;5.291;-8.416
0.145;-0.011;0;2.416;7.07;-10.573
0.175;5.83E-03;0;-2.288;3.739;-8.943
0.143;0.024;0;2.383;7.012;-9.045
0.189;0.019;0;-2.221;6.215;-10.08
0.188;0.015;0;1.178;3.367;-8.54
0.199;0.03;0;1.303;4.092;-7.333
0.226;-0.01;0;0.243;2.456;-7.441
0.232;-4.17E-03;0;0.662;7.036;-8.641
0.243;0.032;0;0.32;2.689;-10.31
0.212;0.034;0;1.661;6.303;-10.909
0.233;4.71E-03;0;-2.058;4.348;-10.252
0.23;-0.031;0;0.424;3.933;-10.78
0.239;-0.021;0;2.166;6.791;-10.092
0.234;-0.014;0;-1.837;5.557;-8.912
0.238;0.01;0;-1.917;4.917;-9.191
0.24;-6.92E-03;0;-1.594;6.679;-7.913
0.263;-0.017;0;2.354;4.001;-10.142
0.294;0.012;0;0.942;4.768;-6.503
0.27;0.032;0;-2.066;2.253;-10.637
0.284;3.20E-03;0;-0.444;4.525;-9.261
0.325;-7.36E-03;0;-1.016;3.448;-10.711
0.296;-7.88E-03;0;-2.182;5.395;-6.453
0.318;-9.10E-03;0;-0.533;4.202;-10.261
0.354;0.017;0;1.905;5.99;-10.621
0.342;0.027;0;-1.241;3.801;-7.818
0.366;-0.023;0;-0.049;4.873;-8.257
0.368;-3.71E-03;0;1.979;5.206;-9.125
0.376;0.033;0;2.246;3.54;-9.407
0.352;-8.93E-03;0;0.889;2.258;-8.434
0.362;0.033;0;-2.046;5.455;-10.258
0.39;0.011;0;1.323;3.415;-8.738
0.397;0.023;0;-1.172;2.562;-8.278
0.414;-0.021;0;2.035;5.349;-10.224
0.413;-0.023;0;1.537;5.628;-9.968
0.423;-3.86E-03;0;0.556;5.172;-9.122
0.403;8.16E-03;0;0.646;4.068;-7.338
0.412;8.53E-04;0;-1.762;3.078;-8.327
0.41;-2.63E-04;0;-0.779;2.954;-7.387
0.416;0.023;0;-1.648;2.461;-9.888
0.424;-0.03;0;0.082;3.629;-8.97
0.468;8.02E-03;0;-1.727;2.549;-9.945
0.457;-9.11E-03;0;1.591;3.513;-11.338
0.431;2.78E-03;0;-1.553;5.037;-9.495
0.461;-0.024;0;0.229;1.717;-11.237
0.456;6.14E-04;0;0.344;5.721;-8.672
0.483;0.01;0;-0.188;4.306;-10.336
0.461;-0.02;0;1.66;2.248;-7.532
0.517;9.29E-03;0;0.751;1.434;-9.111
0.473;0.033;0;-0.571;3.377;-9.903
0.476;-7.56E-03;0;-1.94;1.501;-8.964
0.486;-0.018;0;-0.289;3.582;-9.987
0.504;8.85E-03;0;-0.035;3.237;-8.303
0.538;-0.021;0;1.228;4.546;-11.173
0.543;5.57E-03;0;-0.32;5.285;-9.563
0.544;0.026;0;-0.305;4.089;-8.686
0.515;0.014;0;-1.27;1.466;-8.466
0.506;-0.022;0;-0.538;5.246;-9.537
0.532;4.27E-03;0;-0.039;3.642;-11.353
0.567;0.02;0;2.275;4.501;-7.004
0.53;-7.63E-03;0;1.329;1.893;-8.616
0.551;-8.73E-03;0;-1.76;2.277;-7.144
0.535;5.66E-03;0;-0.068;4.849;-7.743
0.57;0.02;0;0.915;4.294;-10.118
0.531;0.032;0;-1.075;2.634;-10.756
0.538;0.029;0;-2.234;4.024;-10.209
0.564;0.025;0;-2.063;4.854;-10.689
0.6;-0.019;0;2.141;1.377;-8.646
0.583;0.02;0;-1.913;0.887;-7.28
0.614;0.021;0;1.08;4.596;-11.753
0.572;-0.031;0;2.228;4.539;-10.753
0.582;-3.50E-03;0;-0.467;3.182;-8.569
0.613;0.015;0;-1.765;1.473;-9.83
0.566;0.03;0;-1.43;3.04;-11.002
0.576;0.02;0;2.112;-0.068;-7.464
0.58;0.033;0;2.4;1.115;-11.264
0.601;-0.018;0;-0.267;3.153;-9.061
0.597;-0.03;0;2.349;0.314;-11.752
0.598;-0.018;0;-1.432;3.071;-9.041
0.624;0.022;0;-1.045;-0.326;-10.97
0.606;9.44E-03;0;-0.632;1.157;-9.503
0.598;4.29E-03;0;0.724;2.876;-9.318
0.633;-0.021;0;-1.773;2.177;-11.078
0.63;-0.027;0;-1.79;-0.691;-9.68
0.614;0.027;0;2.042;1.139;-9.759
0.644;-0.019;0;0.986;-0.771;-9.334
0.645;-0.013;0;-0.469;0.541;-11.884
0.666;-0.013;0;1.563;0.306;-11.001
0.607;0.013;0;0.631;1.281;-9.729
0.649;0.014;0;1.904;0.762;-11.094
0.65;-0.021;0;-0.08;-0.468;-11.604
0.661;0.017;0;0.23;-1.134;-7.403
0.666;0.019;0;0.895;0.238;-11.232
0.639;0.032;0;1.666;2.677;-8.322
0.625;-0.027;0;0.027;2.633;-9.528
0.657;-1.51E-03;0;-1.498;-0.6;-8.928
0.622;0.034;0;0.134;2.073;-12.014
0.664;0.018;0;-1.988;-0.411;-7.368
0.648;0.034;0;0.048;2.052;-9.225
0.63;-5.76E-03;0;0.368;-0.206;-7.612
0.674;-7.05E-03;0;1.286;-1.035;-7.571
0.655;-2.23E-03;0;-0.22;-1.871;-9.952
0.654;0.032;0;-2.077;0.787;-7.438
0.658;-0.028;0;-2.082;2.499;-7.392
0.628;0.018;0;-6.44E-03;-1.02;-10.399
0.646;-1.54E-04;0;1.802;2.502;-8.528
0.686;0.029;0;-1.067;-1.963;-10.031
0.662;2.96E-03;0;0.025;-1.403;-8.955
0.69;0.017;0;2.307;-2.037;-9.744
0.685;0.032;0;0.059;1.852;-8.679
0.643;0.02;0;-1.748;0.445;-7.672
0.692;0.021;0;0.325;1.727;-12.01
0.628;-0.029;0;0.931;1.299;-11.292
0.642;0.021;0;-0.982;-2.121;-11.267
0.646;-0.027;0;-1.044;1.504;-7.394
0.646;3.99E-03;0;-0.119;-2.707;-10.951
0.684;-0.018;0;1.347;-0.592;-7.733
0.631;-0.03;0;1.555;0.622;-11.997
0.628;0.015;0;-1.815;1.215;-9.483
0.676;-0.016;0;-1.997;-0.772;-7.944
0.647;0.016;0;1.664;-2.076;-10.034
0.672;0.017;0;0.667;-2.815;-8.796
0.627;-8.50E-03;0;-0.858;-1.293;-11.404
0.623;0.011;0;-0.712;-1.999;-9.791
0.614;-5.29E-03;0;-1.695;-3.209;-9.596
0.63;-0.021;0;1.844;-0.805;-7.393
0.621;-0.028;0;0.857;1.083;-9.918
0.609;0.015;0;-1.568;-3.051;-8.57
0.65;-0.01;0;-1.688;0.011;-10.725
0.655;-0.013;0;-0.841;0.719;-10.67
0.604;-0.013;0;-0.627;0.415;-11.021
0.648;0.018;0;0.485;-2.462;-8.545
0.604;0.034;0;-0.207;-1.649;-8.416
0.646;0.019;0;1.238;0.478;-11.021
0.607;-0.014;0;0.342;0.617;-9.227
0.629;-0.023;0;-0.343;-3.962;-8.007
0.609;0.03;0;-1.786;-2.888;-7.6
0.599;-0.016;0;1.351;-2.981;-9.746
0.619;0.027;0;-0.217;-1.955;-8.321
0.577;-0.014;0;-1.625;-3.574;-8.155
0.617;0.012;0;-0.697;-2.364;-11.746
0.594;-0.031;0;2.177;0.118;-10.615
0.599;0.014;0;0.282;-2.444;-11.463
0.611;0.031;0;-0.7;-3.757;-10.564
0.621;-0.031;0;0.098;-0.163;-9.662
0.591;-0.023;0;-0.891;-4.095;-11.62
0.574;5.68E-03;0;0.161;-3.287;-9.486
0.596;-0.026;0;-0.844;-1.704;-8.035
0.568;0.028;0;0.649;-3.069;-8.56
0.599;0.019;0;-0.982;-4.481;-9.355
0.568;2.11E-03;0;-1.136;-4.171;-10.663
0.55;0.029;0;-1.232;-4.687;-7.302
0.568;-8.51E-03;0;-1.711;-4.01;-7.636
0.524;-0.026;0;2.352;-0.963;-11.197
0.554;0.034;0;-0.655;-4.599;-10.979
0.545;-6.54E-03;0;0.493;-5.137;-11.474
0.522;0.033;0;-1.867;-2.951;-8.308
0.521;-7.26E-03;0;1.469;-5.147;-7.238
0.561;7.38E-03;0;-2.168;-4.666;-10.675
0.494;-0.026;0;-2.16;-1.992;-10.286
0.512;0.026;0;1.338;-1.961;-8.218
0.49;0.011;0;-4.94E-03;-5.491;-7.708
0.484;0.033;0;-0.567;-4.024;-9.761
0.507;7.53E-04;0;0.531;-1.023;-7.013
0.484;0.016;0;-0.019;-3.274;-7.87
0.479;5.67E-03;0;0.338;-2.771;-11.296
0.499;-7.10E-03;0;1.889;-3.853;-11.339
0.463;6.81E-03;0;-1.118;-3.728;-9.922
0.483;3.18E-03;0;-2.232;-5.556;-10.64
0.501;0.017;0;-2.192;-5.297;-10.124
0.459;-0.012;0;0.37;-2.224;-8.701
0.473;0.023;0;2.095;-4.051;-7.504
0.456;-1.96E-03;0;-1.101;-3.17;-11.384
0.445;-6.73E-03;0;0.582;-3.095;-7.348
0.43;0.017;0;-1.134;-2.078;-9.086
0.443;4.71E-03;0;1.43;-2.523;-9.204
0.405;-0.017;0;-1.263;-2.873;-7.27
0.417;-2.52E-03;0;-1.415;-2.771;-8.909
0.398;0.011;0;-0.645;-2.986;-7.558
0.391;0.015;0;-2.321;-4.173;-7.438
0.433;0.023;0;0.314;-5.052;-6.811
0.366;0.033;0;1.479;-2.899;-8.68
0.392;0.027;0;2.384;-5.52;-7.155
0.381;0.033;0;1.596;-5.028;-9.9
0.354;8.28E-03;0;-1.014;-2.393;-8.251
0.339;0.033;0;1.541;-6.055;-10.271
0.371;-4.64E-04;0;-0.156;-4.213;-8.393
0.365;-0.013;0;-2.323;-5.656;-7.592
0.322;0.017;0;-2.26;-5.591;-9.799
0.359;4.84E-03;0;0.831;-5.017;-8.567
0.335;-0.017;0;-1.622;-2.752;-6.579
0.302;9.42E-03;0;1.075;-3.668;-8.338
0.352;-0.031;0;0.265;-4.757;-8.447
0.329;7.18E-04;0;1.713;-5.615;-7.923
0.324;0.023;0;1.344;-3.328;-6.554
0.31;-8.18E-03;0;0.946;-3.654;-10.816
0.272;-0.021;0;1.017;-5.944;-6.599
0.297;-0.019;0;-0.827;-4.52;-9.719
0.248;-0.018;0;2.179;-3.803;-6.784
0.242;0.022;0;1.743;-6.086;-10.433
0.289;-0.011;0;1.125;-3.37;-7.279
0.274;0.032;0;-1.025;-3.681;-7.716
0.268;-0.012;0;-1.193;-2.685;-10.502
0.214;-0.013;0;-0.99;-4.032;-8.212
0.262;-0.027;0;2.063;-2.728;-7.545
0.21;0.018;0;-0.829;-3.737;-10.463
0.214;-0.017;0;0.228;-2.301;-6.19
0.235;-4.64E-03;0;0.246;-6.908;-8.252
0.183;0.021;0;1.122;-4.225;-9.319
0.205;-0.025;0;2.243;-5.235;-9.014
0.209;0.023;0;1.26;-5.361;-8.767
0.189;0.027;0;-0.504;-4.743;-8.584
0.163;-0.012;0;-1.695;-3.051;-9.196
0.133;0.016;0;0.215;-3.242;-10.148
0.139;3.45E-03;0;2.352;-4.912;-7.622
0.174;8.82E-03;0;1.82;-2.755;-9.454
0.169;0.035;0;0.213;-2.472;-10.474
0.096;-0.019;0;0.027;-4.189;-10.099
0.134;0.011;0;2.357;-6.142;-9.004
0.137;-0.017;0;1.494;-6.039;-10.186
0.125;-8.06E-03;0;1.698;-5.88;-9.359
0.105;-0.021;0;-2.182;-2.454;-9.746
0.077;-0.03;0;-2.095;-3.106;-9.293
0.066;0.026;0;0.464;-2.466;-9.051
0.097;0.013;0;-1.839;-7.054;-8.198
0.048;0.031;0;-1.706;-3.215;-8.775
0.073;-0.026;0;-0.985;-6.546;-9.748
0.071;6.37E-03;0;-0.232;-6.265;-6.14
0.042;-5.82E-03;0;-0.34;-2.643;-7.69
0.023;-1.35E-03;0;2.24;-5.044;-7.647
0.015;-0.019;0;-1.576;-2.592;-10.212
0.028;0.018;0;2.371;-3.66;-9.239
-0.018;7.14E-03;0;-1.263;-2.851;-6.902
0.02;-8.51E-04;0;0.637;-4.732;-7.772
-0.041;7.23E-04;0;0.418;-5.812;-10.634
-0.025;-0.013;0;-1.426;-2.463;-9.065
1.43E-03;-0.031;0;-2.257;-6.672;-6.294
-0.029;-0.01;0;-0.564;-5.119;-9.871
-0.059;0.033;0;-1.426;-4.698;-10.788
-0.058;0.022;0;1.296;-2.951;-10.379
-0.064;-5.28E-03;0;-0.495;-4.158;-8.939
-0.049;-0.03;0;-1.945;-6.7;-10.544
-0.055;-0.025;0;-1.42;-6.302;-8.187
-0.073;6.80E-03;0;1.443;-5.393;-8.418
-0.115;-0.02;0;-0.205;-5.734;-10.327
-0.125;7.85E-03;0;-1.477;-7.045;-6.639
-0.106;8.97E-03;0;-0.415;-6.965;-8.62
-0.087;-6.02E-04;0;1.986;-6.165;-6.795
-0.112;6.92E-03;0;0.836;-2.407;-10.401
-0.115;0.033;0;2.007;-3.218;-7.445
-0.128;0.027;0;1.392;-4.495;-10.845
-0.175;3.90E-03;0;0.97;-6.48;-9.55
-0.181;-0.026;0;-2.245;-5.894;-9.368
-0.172;-0.023;0;2.335;-6.823;-6.617
-0.17;4.62E-03;0;-0.968;-3.753;-8.715
-0.203;0.027;0;0.356;-4.901;-6.602
-0.221;-0.014;0;0.502;-5.227;-6.521
-0.17;0.012;0;0.546;-4.358;-9.984
-0.211;5.10E-04;0;-1.632;-6.001;-10.721
-0.219;0.027;0;2.246;-2.458;-10.271
-0.226;-0.031;0;-0.117;-3.274;-6.862
-0.248;0.015;0;2.019;-2.306;-8.679
-0.262;-0.013;0;-0.147;-6.069;-9.667
-0.275;0.023;0;2.11;-5.98;-8.274
-0.247;-0.025;0;-2.12;-3.393;-6.703
-0.25;-0.016;0;0.981;-3.113;-8.155
-0.255;-0.031;0;-1.492;-2.136;-8.231
-0.293;0.028;0;-1.777;-5.576;-11.067
-0.253;-0.018;0;1.328;-3.885;-6.3
-0.283;0.022;0;0.467;-3.409;-7.314
-0.293;-0.012;0;0.131;-3.711;-9.064
-0.309;5.50E-03;0;-1.889;-3.199;-10.853
-0.319;-0.019;0;-1.842;-5.079;-11.08
-0.311;6.02E-03;0;0.434;-4.84;-9.502
-0.353;0.031;0;0.847;-4.163;-7.898
-0.354;-0.012;0;-2.048;-5.752;-10.893
-0.37;0.022;0;-2.059;-4.994;-7.014
-0.327;0.012;0;2.1;-3.872;-7.647
-0.355;0.023;0;2.109;-4.323;-8.894
-0.383;0.016;0;2.234;-1.972;-9.751
-0.381;0.026;0;2.121;-2.809;-11.119
-0.368;-0.024;0;-0.339;-3.829;-10.874
-0.414;-0.026;0;-1.334;-5.443;-9.332
-0.372;-0.025;0;1.954;-4.815;-7.773
-0.407;9.97E-03;0;0.097;-5.345;-9.582
-0.431;0.031;0;-2.151;-5.895;-6.812
-0.393;0.025;0;1.974;-5.158;-11.347
-0.395;-0.019;0;-2.115;-5.504;-6.957
-0.399;0.013;0;0.743;-2.896;-9.452
-0.442;0.019;0;2.449;-3.128;-8.639
-0.437;-0.013;0;-1.881;-6.069;-7.831
-0.472;1.76E-03;0;1.61;-2.692;-9.016
-0.452;-0.025;0;-1.554;-5.755;-6.818
-0.453;0.017;0;-1.8;-1.508;-8.976
-0.48;0.029;0;-1.13;-3.291;-9.791
-0.467;0.03;0;-0.102;-5.783;-6.837
-0.437;-0.021;0;-1.38;-2.015;-10.858
-0.496;0.021;0;0.599;-5.535;-8.903
-0.456;-8.35E-04;0;-1.599;-3.854;-9.409
-0.478;0.018;0;-2.203;-2.809;-7.782
-0.463;-0.022;0;1.767;-4.913;-8.408
-0.465;-3.82E-03;0;-1.051;-2.02;-11.517
-0.494;0.034;0;-0.895;-1.027;-8.609
-0.49;0.031;0;1.048;-3.406;-7.119
-0.529;0.022;0;-1.049;-2.219;-8.446
-0.514;0.011;0;2.16;-4.578;-8.879
-0.545;-5.88E-03;0;0.764;-4.542;-7.355
-0.516;-0.031;0;0.282;-3.084;-7.719
-0.539;-0.03;0;-2.086;-4.783;-7.86
-0.562;1.70E-03;0;-0.179;-4.965;-10.431
-0.525;-8.25E-03;0;1.128;-1.695;-9.378
-0.529;-0.028;0;0.301;-3.374;-9.108
-0.562;0.027;0;-1.874;-1.93;-8.292
-0.573;0.025;0;1.992;-4.351;-7.104
-0.561;7.58E-03;0;-1.698;-3.188;-11.681
-0.559;-0.014;0;-1.723;-1.332;-9.14
-0.601;-0.018;0;1.279;-1.595;-7.143
-0.541;2.74E-03;0;-0.929;-4.32;-10.551
-0.55;2.24E-03;0;-0.263;-0.634;-11.467
-0.569;0.024;0;2.208;-1.273;-8.672
-0.607;-0.011;0;-0.45;-1.343;-10.81
-0.588;0.029;0;0.39;-0.883;-8.848
-0.62;-0.016;0;-0.617;-3.98;-11.265
-0.57;-0.02;0;-1.698;-0.672;-9.628
-0.593;-0.013;0;-0.68;-0.863;-7.669
-0.635;0.028;0;-2.315;-0.719;-11.726
-0.574;-0.031;0;-0.103;-0.216;-7.832
-0.583;2.74E-03;0;1.884;-3.099;-11.265
-0.601;3.51E-03;0;-1.381;-3.032;-11.353
-0.583;-0.021;0;-2.321;-1.968;-7.483
-0.636;0.034;0;-1.791;-1.616;-8.099
-0.638;0.031;0;-0.458;-0.516;-9.44
-0.63;0.021;0;0.028;-3.57;-10.901
-0.596;0.024;0;-1.222;-2.057;-9.417
-0.641;-7.38E-03;0;1.72;-0.836;-9.656
-0.616;0.019;0;-1.17;-1.831;-8.495
-0.621;-2.96E-03;0;1.347;-2.93;-10.431
-0.635;0.01;0;-1.584;1.077;-9.127
-0.666;0.029;0;-1.753;-1.131;-8.284
-0.662;-0.018;0;-1.944;-1.977;-7.307
-0.67;-0.02;0;-2.323;-1.956;-9.334
-0.629;-0.019;0;2.193;-0.047;-9.728
-0.639;0.027;0;-0.138;-1.504;-8.488
-0.652;9.46E-03;0;1.135;-2.059;-7.565
-0.625;-0.02;0;-0.268;-0.552;-9.501
-0.618;0.032;0;1.179;-0.839;-9.2
-0.65;-0.012;0;2.017;0.728;-8.198
-0.618;0.028;0;0.596;1.146;-10.641
-0.654;3.44E-03;0;1.066;0.649;-11.135
-0.676;-0.01;0;-0.917;0.324;-10.769
-0.643;6.31E-03;0;2.152;-0.456;-10.499
-0.629;-5.56E-03;0;0.846;-1.36;-7.838
-0.658;-0.027;0;-6.23E-03;0.412;-11.571
-0.673;-0.017;0;-2.036;-1.531;-7.454
-0.683;6.82E-03;0;0.875;0.484;-9.53
-0.637;-0.022;0;-0.027;-2.269;-12.109
-0.653;8.58E-03;0;-0.734;-1.161;-11.9
-0.681;-0.031;0;0.162;-0.564;-8.073
-0.659;-0.03;0;0.147;-0.554;-8.235
-0.64;6.87E-04;0;2.202;-0.516;-11.055
-0.665;8.99E-04;0;-2.058;1.104;-7.379
-0.686;0.023;0;2.426;0.631;-8.571
-0.632;-0.018;0;-1.551;1.748;-10.259
-0.678;-0.025;0;-1.51;1.999;-9.457
-0.67;8.60E-03;0;-0.519;-1.044;-9.677
-0.674;-0.014;0;1.449;2.425;-9.613
-0.627;-0.015;0;2.185;-0.277;-10.064
-0.681;-0.012;0;1.813;0.699;-7.512
-0.631;0.015;0;2.409;2.096;-9.644
-0.629;-3.66E-03;0;1.21;2.124;-8.342
-0.665;2.33E-03;0;0.422;0.196;-10.064
-0.677;0.026;0;-2.275;0.027;-10.919
-0.654;-0.026;0;2.405;-0.745;-10.374
-0.639;-0.011;0;-1.912;-0.641;-7.562
-0.635;7.85E-03;0;-0.872;0.873;-11.936
-0.658;-0.025;0;-2.333;2.912;-10.313
-0.651;0.018;0;0.996;2.785;-10.401
-0.636;0.015;0;1.419;3.281;-8.692
-0.607;5.52E-03;0;-0.488;2.198;-10.928
-0.611;-8.73E-03;0;-2.065;2.036;-11.783
-0.638;0.023;0;1.627;3.729;-9.129
-0.66;-0.011;0;-1.825;3.093;-7.735
-0.657;8.18E-03;0;2.222;1.769;-7.594
-0.593;0.027;0;-1.855;1.748;-7.896
-0.614;-6.75E-03;0;-2.066;0.793;-10.448
-0.611;-9.27E-03;0;1.17;2.889;-8.662
-0.601;-0.027;0;-1.095;0.183;-8.118
-0.582;-0.024;0;2.258;3.326;-9.414
-0.615;0.014;0;2.257;2.28;-10.143
-0.594;-5.50E-03;0;-1.888;0.598;-10.965
-0.63;0.026;0;-0.766;3.868;-8.404
-0.567;-0.014;0;2.194;1.648;-7.904
-0.604;0.023;0;-0.94;0.983;-10.328
-0.566;0.024;0;-1.392;2.391;-9.822
-0.595;-0.015;0;2.041;0.88;-10.022
-0.553;-0.012;0;1.692;2.906;-8.66
-0.612;5.24E-03;0;1.092;3.764;-8.051
-0.549;-3.52E-03;0;1.242;0.429;-8.891
-0.594;0.031;0;1.916;0.994;-10.309
-0.596;-7.54E-03;0;-1.278;0.847;-8.936
-0.579;0.019;0;1.6;0.434;-10.934
-0.568;-4.86E-03;0;0.92;0.481;-7.253
-0.541;0.014;0;2.398;0.681;-9.902
-0.559;-6.78E-04;0;-1.471;2.895;-8.032
-0.57;-0.024;0;0.445;1.745;-7.75
-0.552;0.029;0;-1.985;3.284;-8.6
-0.568;-0.02;0;2.145;2.772;-8.848
-0.503;0.012;0;-0.349;5.195;-10.767
-0.509;-0.021;0;-1.622;2.263;-9.301
-0.546;0.024;0;-0.301;2.115;-9.381
-0.543;-0.014;0;2.12;4.268;-10.531
-0.517;-7.11E-04;0;0.951;3.11;-9.921
-0.476;0.021;0;-2.079;2.735;-10.581
-0.5;0.03;0;-0.958;1.403;-9.189
-0.492;0.012;0;0.165;5.186;-9.371
-0.465;0.024;0;0.857;3.521;-10.14
-0.455;-0.024;0;1.247;5.41;-8.82
-0.497;-4.83E-03;0;-0.817;3.489;-9.728
-0.464;0.031;0;1.802;4.785;-10.374
-0.497;-9.13E-03;0;-1.613;5.277;-6.773
-0.448;9.84E-03;0;0.245;1.556;-10.116
-0.428;0.027;0;0.839;2.001;-7.172
-0.435;0.034;0;-0.824;4.401;-8.415
-0.414;0.019;0;0.797;5.489;-10.98
-0.442;0.022;0;2.037;4.036;-10.224
-0.43;0.013;0;1.236;5.863;-6.751
-0.395;0.016;0;-0.112;2.468;-8.993
-0.398;-0.02;0;-0.626;2.812;-10.538
-0.405;-0.024;0;-1.381;4.779;-7.191
-0.385;1.06E-03;0;-0.35;2.632;-6.698
-0.401;-0.015;0;-0.073;5.771;-8.719
-0.387;-0.016;0;-0.089;2.539;-10.574
-0.401;-0.013;0;0.79;6.153;-7.385
-0.373;-7.70E-04;0;-0.061;5.341;-9.238
-0.408;-1.67E-03;0;1.686;4.038;-7.651
-0.359;0.034;0;2.111;4.258;-9.999
-0.342;-0.025;0;1.777;6.081;-10.495
-0.381;9.15E-03;0;0.461;5.013;-10.536
-0.343;0.023;0;0.118;4.017;-10.218
-0.326;0.032;0;0.018;5.745;-9.787
-0.312;-4.21E-03;0;0.356;4.176;-7.14
-0.314;0.011;0;0.215;6.695;-8.078
-0.287;0.02;0;-0.46;2.876;-9.911
-0.298;9.45E-03;0;-1.332;3.841;-9.839
-0.272;0.013;0;1.73;4.88;-8.337
-0.32;-0.023;0;1.975;4.802;-11.058
-0.298;-0.012;0;-1.4;6.655;-10.638
-0.294;-9.50E-03;0;-1.093;6.755;-8.854
-0.273;0.015;0;0.987;3.17;-10.664
-0.28;-0.028;0;-1.997;3.532;-10.501
-0.275;0.032;0;1.067;2.458;-7.813
-0.255;4.49E-03;0;-1.584;4.902;-7.199
-0.236;0.034;0;2.009;5.728;-7.698
-0.216;0.021;0;0.822;5.424;-10.076
-0.201;-0.01;0;-0.411;4.555;-10.908
-0.21;-4.08E-03;0;-0.643;6.035;-7.981
-0.185;-0.017;0;-0.271;5.825;-9.262
-0.205;-6.43E-03;0;-1.114;6.539;-7.037
-0.217;0.018;0;-0.285;6.138;-6.516
-0.2;0.023;0;-1.412;4.88;-6.701
-0.177;-0.016;0;-2.164;3.29;-10.799
-0.198;-0.02;0;0.57;3.047;-9.819
-0.155;8.44E-04;0;2.445;4.992;-6.143
-0.129;0.017;0;-1.087;2.65;-7.945
-0.151;-4.03E-03;0;-0.557;7.044;-9.011
-0.147;0.034;0;-1.743;4.426;-10.567
-0.161;-0.013;0;-1.797;6.931;-10.472
-0.107;0.03;0;-1.904;4.319;-6.63
-0.145;-6.53E-03;0;-0.442;5.783;-6.087
-0.116;-1.01E-03;0;1.51;5.207;-8.735
-0.11;-0.018;0;1.072;7.003;-10.283
-0.113;-0.02;0;-1.093;3.281;-10.699
-0.09;-0.028;0;-1.415;2.966;-7.317
-0.088;0.026;0;-0.048;6.584;-8.858
-0.044;0.033;0;-1.701;6.144;-9.608
-0.029;0.012;0;1.742;6.271;-9.149
-0.045;-0.021;0;-1.601;5.526;-7.291
-0.023;-8.08E-03;0;0.054;6.178;-6.895
-3.61E-03;7.61E-03;0;-2.257;5.602;-8.622
-0.045;0.028;0;-0.954;7.202;-10.353
-9.97E-03;-0.029;0;0.222;4.776;-7.944
-0.015;-2.68E-03;0;1.226;4.031;-8.426
-0.022;-7.87E-03;0;0.221;3.161;-8.769
0.023;0.032;0;0.382;6.08;-6.476
0.025;0.028;0;-0.497;7.184;-10.763
0.026;0.033;0;-2.248;5.59;-6.592
0.033;-0.011;0;-2.316;5.593;-6.477
0.038;-0.023;0;1.617;5.677;-8.197
0.05;-9.01E-03;0;1.816;4.46;-7.191
0.074;-1.78E-03;0;1.762;7.267;-6.293
0.045;0.032;0;2.04;4.452;-9.091
0.078;0.025;0;-0.827;5.204;-10.328
0.101;-5.51E-03;0;2.112;3.134;-10.494
0.091;0.014;0;0.688;3.029;-8.139
0.129;-2.95E-04;0;-1.132;6.55;-10.565
0.127;-0.023;0;1.276;5.398;-8.501
0.08;0.022;0;-0.573;3.048;-8.912
0.098;0.027;0;-1.73;7.216;-9.817
0.126;-0.019;0;-0.926;3.747;-8.601
0.125;-0.014;0;-2.258;5.801;-9.26
0.139;0.021;0;-1.04;6.51;-8.335
0.141;-0.029;0;-0.349;7.048;-10.467
0.137;3.18E-03;0;1.019;7.026;-10.375
0.174;0.034;0;-1.135;3.843;-9.493
0.153;-0.025;0;1.542;5.2;-10.698
0.21;0.021;0;-1.697;3.47;-8.45
0.204;-0.016;0;-2.29;5.471;-7.623
0.174;0.032;0;-0.802;5.33;-7.72
0.213;3.27E-04;0;-0.291;2.535;-9.788
0.249;6.02E-03;0;-1.622;5.722;-6.921
0.222;-0.025;0;0.213;3.949;-7.606
0.212;6.49E-03;0;0.814;3.103;-8.771
0.221;3.76E-03;0;-0.38;4.188;-9.288
0.264;-0.02;0;0.429;3.683;-7.991
0.272;0.028;0;0.383;4.914;-9.386
0.246;-9.88E-03;0;-0.08;5.556;-7.426
0.301;0.029;0;1.506;5.601;-10.184
0.247;0.016;0;-1.47;4.504;-9.893
0.319;0.026;0;-2.116;6.441;-7.16
0.282;-9.46E-03;0;-0.693;4.472;-8.715
0.307;0.032;0;1.152;5.333;-10.777
0.335;0.028;0;-1.562;3.747;-7.148
0.324;-1.28E-04;0;0.169;2.049;-11.003
0.301;-7.23E-03;0;-1.433;2.341;-7.96
0.349;5.44E-03;0;-2.005;5.795;-9.71
0.318;0.016;0;-0.907;6.398;-8.163
0.328;2.01E-03;0;0.228;6.379;-8.128
0.358;-0.017;0;0.531;3.034;-7.465
0.358;9.67E-03;0;0.209;6.17;-7.186
0.378;2.56E-03;0;-0.033;6.416;-7.756
0.346;0.013;0;-0.593;5.743;-8.88
0.358;-2.75E-04;0;0.287;4.267;-7.375
0.39;0.015;0;-2.053;1.943;-9.198
0.387;-3.68E-03;0;0.584;1.742;-10.761
0.368;-1.57E-03;0;-1.629;1.828;-9.194
0.405;5.90E-03;0;0.032;6.299;-9.145
0.442;-0.025;0;0.88;5.465;-10.715
0.422;-0.021;0;1.865;6.288;-10.567
0.439;-3.60E-03;0;-0.508;4.31;-8.939
0.426;-8.65E-03;0;1.692;3.197;-7.601
0.408;-8.07E-03;0;0.62;5.821;-10.729
0.45;-0.017;0;-0.359;6.065;-9.113
0.44;0.026;0;1.419;6.053;-9.239
0.437;0.029;0;1.347;4.753;-10.035
0.472;-0.026;0;2.251;2.614;-11.072
0.492;-3.48E-03;0;-0.791;3.621;-11.05
0.483;0.022;0;0.266;3.368;-7.98
0.489;0.026;0;-0.126;2.513;-10.237
0.458;-0.021;0;-0.029;3.093;-8.62
0.494;0.027;0;-1.962;1.802;-11.291
0.48;-1.17E-03;0;2.207;3.656;-7.943
0.509;0.031;0;0.981;4.91;-8.793
0.529;-9.64E-03;0;-2.196;1.849;-9.734
0.536;-0.015;0;-0.88;3.734;-9.6
0.522;0.03;0;-0.576;1.204;-8.711
0.504;0.033;0;1.417;2.096;-7.544
0.527;-0.019;0;-1.532;0.783;-9.251
0.557;-3.88E-04;0;2.085;4.989;-8.963
0.557;-4.82E-03;0;0.733;2.852;-11.192
0.511;-0.011;0;2.227;4.677;-7.053
0.521;2.00E-03;0;-1.153;2.022;-10.926
0.549;0.02;0;0.935;1.985;-7.338
0.56;0.016;0;1.522;2.591;-10.73
0.588;3.89E-03;0;-2.239;2.534;-7.073
0.594;0.029;0;1.69;2.642;-7.631
0.589;-0.019;0;-2.011;2.175;-11.648
0.591;-0.02;0;-1.248;1.219;-7.641
0.553;5.98E-03;0;0.144;2.362;-10.024
0.577;-0.028;0;0.27;0.812;-7.805
0.564;-0.016;0;0.416;2.401;-11.512
0.617;0.029;0;-1.848;3.772;-11.131
0.614;-0.018;0;-1.752;4.515;-8.238
0.618;0.034;0;-1.506;3.734;-7.232
0.574;-0.015;0;-0.673;2.695;-8.856
0.619;-8.14E-04;0;-0.826;4.327;-7.776
0.631;0.032;0;0.185;0.885;-7.867
0.635;-0.026;0;-0.833;3.74;-11.9
0.579;0.022;0;-1.242;2.651;-7.264
0.592;0.026;0;0.987;1.465;-9.908
0.598;-0.01;0;0.686;3.426;-7.719
0.599;-0.019;0;-1.131;-0.546;-10.971
0.654;0.02;0;-1.629;-0.388;-9.146
0.645;0.035;0;0.653;1.099;-10.866
0.616;-6.47E-03;0;-1.634;2.371;-9.943
0.637;-0.015;0;-0.952;-0.471;-10.455
0.615;2.37E-03;0;1.996;3.064;-11.1
0.647;-3.63E-03;0;-2.082;1.887;-10.557
0.627;0.021;0;0.353;3.17;-9.682
0.633;-0.014;0;-0.308;-0.655;-7.389
0.658;0.011;0;-0.861;2.772;-11.89
0.639;-1.76E-04;0;1.8;1.669;-10.364
0.642;-0.018;0;-0.105;2.736;-11.766
0.651;9.36E-03;0;-0.384;2.771;-10.287
0.639;-0.027;0;1.166;1.215;-9.009
0.671;0.023;0;0.527;0.911;-11.065
0.651;0.031;0;-0.983;1.143;-11.954
0.644;0.022;0;-1.46;2.467;-9.714
0.625;-4.44E-03;0;2.373;-0.262;-7.865
0.658;-5.54E-03;0;0.576;-1.678;-8.94
0.636;-0.021;0;-0.657;0.706;-10.023
0.666;2.72E-03;0;0.98;0.445;-9.551
0.69;0.022;0;0.554;0.945;-9.931
0.67;6.69E-03;0;0.215;2.707;-9.315
0.67;-6.51E-03;0;-0.476;2.057;-11.436
0.633;-0.024;0;-2.098;1.594;-8.388
0.659;-0.024;0;0.131;-1.541;-8.706
0.639;0.032;0;-1.5;-1.455;-9.457
0.642;-0.015;0;-0.728;2.021;-7.984
0.647;-6.66E-04;0;-1.754;-0.613;-7.951
0.675;3.43E-05;0;-2.135;2.142;-7.912
0.627;-0.012;0;1.259;-0.097;-8.499
0.668;0.029;0;0.394;-1.893;-9.505
0.676;-0.023;0;-0.23;1.851;-10.123
0.662;-0.017;0;-0.782;-2.179;-9.044
0.655;0.03;0;0.049;0.39;-10.774
0.675;5.61E-03;0;0.015;-0.396;-11.298
0.662;-0.031;0;0.142;1.655;-7.342
0.684;-0.019;0;-1.957;0.141;-11.54
0.622;7.97E-03;0;0.976;-2.975;-8.099
0.661;-3.73E-03;0;0.022;-2.784;-7.815
0.649;-0.015;0;0.23;0.878;-9.663
0.65;-1.93E-03;0;1.362;1.475;-11.144
0.645;3.37E-03;0;2.444;1.485;-8.341
0.654;-0.02;0;-0.917;-3.003;-9.358
0.674;8.82E-03;0;-0.425;-0.879;-7.523
0.658;-0.013;0;-1.754;-0.458;-10.898
0.631;-0.031;0;-1.259;0.277;-9.296
0.63;0.012;0;0.891;-1.604;-8.893
0.615;-0.019;0;-1.525;-2.154;-9.613
0.618;0.013;0;-2.197;-2.003;-11.086
0.601;-0.013;0;-0.148;-1.565;-9.223
0.653;-0.029;0;0.173;-1.853;-9.562
0.598;2.06E-03;0;1.874;-3.098;-11.65
0.643;-0.024;0;1.671;-0.808;-11.817
0.644;0.021;0;0.19;-2.284;-10.769
0.641;-0.016;0;-0.65;-4.044;-11.934
0.622;0.031;0;1.013;-2.339;-11.421
0.594;0.02;0;2.343;-1.246;-8.978
0.628;0.028;0;2.017;-4.165;-8.668
0.628;0.025;0;-1.853;-2.812;-9.063
0.625;9.04E-03;0;0.154;-1.658;-7.598
0.582;-0.027;0;-2.277;-3.615;-7.631
0.596;0.024;0;2.201;-2.894;-9.29
0.574;-5.57E-03;0;-0.562;-1.873;-8.594
0.623;5.79E-03;0;1.837;-4.055;-11.176
0.567;5.27E-03;0;-2.134;-1.16;-9.558
0.601;-0.019;0;0.01;-3.946;-9.93
0.611;0.029;0;-2.342;-2.93;-9.793
0.552;-7.06E-03;0;-1.251;-0.397;-7.031
0.575;-0.011;0;-0.13;-4.119;-8.624
0.553;6.18E-03;0;1.903;-3.528;-9.942
0.576;0.032;0;-2.138;-2.381;-7.627
0.535;-0.025;0;1.049;-2.34;-9.824
0.545;6.49E-03;0;-1.771;-4.295;-8.373
0.562;0.026;0;-0.725;-1.365;-10.455
0.567;-0.03;0;-1.869;-0.656;-9.453
0.567;0.011;0;-1.81;-1.327;-7.536
0.533;0.02;0;1.78;-5.118;-8.976
0.508;0.018;0;0.887;-2.075;-7.488
0.527;-0.019;0;-2.184;-4.941;-11.453
0.5;-3.01E-03;0;-0.541;-2.719;-8.957
0.543;-0.029;0;-0.408;-1.833;-11.607
0.502;2.56E-03;0;-0.2;-5.116;-7.284
0.518;-8.81E-03;0;-2.031;-1.249;-6.916
0.513;5.24E-03;0;-0.588;-5.226;-7.65
0.51;0.03;0;0.752;-3.151;-11.403
0.504;-3.15E-03;0;-0.206;-2.557;-11.012
0.49;9.36E-03;0;-1.232;-1.615;-7.138
0.475;-0.019;0;-2.021;-2.58;-11.417
0.448;0.013;0;-0.955;-3.028;-7.844
0.497;-8.15E-03;0;0.327;-3.883;-7.27
0.468;-0.013;0;-1.246;-2.952;-7.638
0.474;-2.83E-03;0;-1.653;-2.633;-7.46
0.42;0.015;0;1.927;-3.516;-8.53
0.427;0.02;0;-2.282;-1.307;-10.866
0.441;0.033;0;0.664;-1.789;-10.263
0.423;6.36E-03;0;1.83;-1.385;-7.474
0.402;8.35E-03;0;-1.188;-2.162;-7.117
0.424;-0.018;0;-2.253;-5.402;-8.452
0.397;-8.79E-03;0;-0.153;-2.406;-9.835
0.373;9.15E-03;0;-0.259;-3.285;-9.202
0.369;-5.71E-03;0;-1.544;-1.643;-7.522
0.395;0.032;0;1.215;-1.992;-8.117
0.395;-0.029;0;-1.481;-3.929;-7.841
0.372;-0.013;0;0.713;-6.078;-9.078
0.404;-0.016;0;0.846;-3.176;-7.866
0.358;-9.92E-03;0;0.921;-3.411;-10.264
0.384;-0.028;0;-2.22;-4.86;-9.895
0.358;-8.21E-03;0;2.136;-3.074;-8.249
0.375;-4.75E-04;0;-0.259;-2.927;-6.655
0.352;-0.028;0;-0.331;-6.599;-10.334
0.325;1.87E-03;0;1.049;-5.797;-6.983
0.34;-7.84E-03;0;1.858;-2.847;-7.193
0.292;-0.026;0;1.421;-5.854;-7.152
0.294;-0.012;0;1.238;-2.288;-9.336
0.33;0.019;0;0.08;-5.547;-7.778
0.267;0.014;0;2.072;-3.87;-8.133
0.296;2.26E-03;0;1.994;-4.095;-10.336
0.262;0.026;0;-1.658;-6.419;-8.162
0.295;0.028;0;1.225;-5.053;-6.661
0.261;-0.028;0;0.583;-5.795;-10.857
0.273;0.019;0;0.141;-6.424;-10.867
0.274;0.027;0;0.857;-3.225;-9.704
0.223;7.96E-03;0;0.633;-4.705;-7.626
0.209;-9.45E-03;0;-1.702;-4.515;-6.724
0.221;-0.029;0;2.055;-3.424;-10.472
0.226;0.023;0;-1.457;-6.69;-9.564
0.178;-5.54E-03;0;-0.295;-4.663;-7.923
0.175;0.018;0;-1.085;-4.657;-9.326
0.182;0.014;0;-0.657;-2.959;-10.305
0.179;0.029;0;-2.318;-4.835;-8.99
0.188;-0.013;0;-1.69;-3.37;-8.743
0.169;3.10E-03;0;0.781;-6.224;-6.443
0.194;-3.20E-03;0;1.601;-6.151;-6.305
0.15;0.028;0;1.832;-3.155;-6.779
0.118;0.017;0;-0.57;-3.882;-9.682
0.152;0.02;0;0.188;-3.866;-6.322
0.137;-0.024;0;-1.309;-5.602;-6.796
0.118;-0.019;0;-0.814;-3.75;-8.618
0.086;-0.029;0;1.174;-3.975;-6.199
0.121;0.029;0;1.264;-3.573;-10.06
0.073;0.017;0;1.734;-5.839;-9.816
0.062;-3.86E-03;0;-0.189;-6.703;-10.569
0.055;-0.026;0;0.216;-3.669;-9.321
0.089;-0.011;0;-1.172;-3.918;-6.214
0.067;0.029;0;-0.625;-3.509;-7.498
0.088;-0.011;0;-2.229;-4.835;-9.609
0.033;-1.43E-03;0;1.842;-6.151;-10.656
0.028;-2.22E-03;0;1.508;-4.334;-6.871
0.053;0.01;0;2.383;-4.214;-7.868
0.043;0.032;0;2.359;-5.511;-7.554
-0.019;0.03;0;-1.852;-2.472;-8.1
0.028;-0.013;0;-1.025;-6.786;-9.813
-0.031;6.34E-04;0;-1.289;-3.911;-6.773
-0.034;4.26E-03;0;-0.986;-2.563;-8.371
-3.71E-03;-8.74E-03;0;0.921;-2.511;-10.516
-0.039;-0.017;0;-1.728;-6.03;-6.947
-0.068;-0.017;0;1.704;-6.951;-6.076
-0.052;-0.015;0;-1.419;-4.103;-8.888
-0.065;0.027;0;-0.593;-6.449;-6.95
-0.046;-0.018;0;-0.534;-6.903;-10.164
-0.101;0.01;0;-0.85;-3.87;-10.821
-0.1;0.019;0;1.834;-5.649;-6.918
-0.084;0.012;0;1.602;-3.292;-6.168
-0.103;-6.67E-03;0;1.934;-6.162;-8.088
-0.111;0.031;0;0.283;-5.053;-10.173
-0.134;-0.031;0;-0.537;-4.72;-7.594
-0.142;0.013;0;0.437;-6.033;-7.072
-0.154;-0.029;0;-1.961;-6.182;-7.566
-0.103;-3.53E-03;0;-1.939;-5.304;-9.436
-0.165;-0.013;0;-2.109;-4.003;-8.66
-0.167;-0.011;0;-0.558;-3.306;-10.592
-0.162;0.033;0;2.249;-2.799;-10.844
-0.175;-1.12E-04;0;0.538;-4.292;-7.387
-0.157;0.024;0;-1.177;-3.116;-8.007
-0.212;0.03;0;1.766;-5.372;-10.54
-0.19;-0.022;0;0.348;-5.011;-10.18
-0.218;-0.027;0;1.557;-5.97;-10.264
-0.231;0.016;0;-0.168;-2.978;-9.394
-0.188;-0.025;0;0.991;-6.576;-6.694
-0.195;0.024;0;1.391;-4.8;-9.5
-0.26;4.68E-03;0;1.309;-6.577;-10.305
-0.253;-0.025;0;1.546;-3.58;-7.148
-0.221;-0.028;0;-2.21;-3.704;-6.478
-0.266;-0.026;0;0.131;-2.844;-10.587
-0.26;0.022;0;-0.145;-4.873;-10.553
-0.252;0.028;0;2.227;-4.747;-7.514
-0.267;6.09E-03;0;-0.843;-2.9;-10.4
-0.302;8.08E-04;0;-1.067;-3.571;-7.102
-0.266;0.026;0;2.066;-5.759;-9.401
-0.284;0.021;0;-1.05;-5.114;-9.745
-0.297;-0.019;0;0.211;-5.574;-10.124
-0.325;1.60E-03;0;-2.16;-3.616;-10.429
-0.352;0.02;0;0.325;-2.871;-7.372
-0.344;0.014;0;0.204;-4.092;-9.425
-0.316;0.026;0;1.451;-2.103;-8.764
-0.315;0.032;0;0.863;-2.505;-6.44
-0.336;0.032;0;2.305;-2.639;-7.288
-0.376;-4.79E-03;0;1.836;-2.038;-9.606
-0.368;0.033;0;-1.025;-2.202;-10.543
-0.341;-0.029;0;0.039;-1.92;-6.585
-0.395;0.026;0;-1.954;-3.27;-7.828
-0.396;0.029;0;-1.546;-3.429;-10.911
-0.38;9.94E-03;0;0.536;-5.794;-8.64
-0.405;0.014;0;-0.25;-3.167;-10.654
-0.401;-0.027;0;0.952;-5.583;-9.707
-0.396;0.022;0;1.43;-3.813;-9.448
-0.436;1.13E-03;0;0.131;-5.737;-9.695
-0.398;-0.019;0;-0.425;-2.837;-11.004
-0.418;0.011;0;-0.755;-2.815;-10.436
-0.408;-0.016;0;1.024;-3.795;-7.35
-0.447;0.025;0;-2.332;-3.163;-8.442
-0.424;-4.11E-03;0;-1.819;-5.893;-9.405
-0.453;-0.03;0;0.565;-2.269;-6.895
-0.427;-0.021;0;2.427;-1.999;-7.078
-0.444;-0.021;0;1.193;-1.788;-8.607
-0.502;-0.021;0;-0.989;-3.307;-8.041
-0.444;-0.02;0;1.459;-1.902;-10.525
-0.498;0.035;0;1.096;-5.448;-8.741
-0.457;0.022;0;2.092;-5.228;-8.357
-0.513;-0.028;0;-1.453;-5.58;-8.33
-0.487;-0.024;0;1.928;-3.56;-7.839
-0.512;0.015;0;-1.636;-4.5;-10.413
-0.494;2.92E-03;0;0.154;-2.898;-7.977
-0.515;0.018;0;0.414;-2.347;-7.936
-0.507;0.03;0;-2.248;-5.184;-10.461
-0.517;-0.025;0;-0.383;-3.661;-11.458
-0.506;0.024;0;1.602;-2.175;-10.947
-0.51;3.54E-03;0;2.44;-1.908;-10.404
-0.508;0.033;0;-1.357;-0.834;-7.227
-0.526;0.016;0;-0.147;-2.521;-9.242
-0.516;-0.018;0;-0.308;-1.079;-8.779
-0.571;-0.015;0;-0.055;-1.651;-8.955
-0.587;0.011;0;0.14;-2.937;-10.623
-0.582;0.028;0;-0.11;-3.743;-8.467
-0.595;-0.011;0;0.39;-2.413;-7.331
-0.56;0.015;0;0.441;-4.744;-11.742
-0.541;-5.02E-03;0;0.562;-0.243;-10.084
-0.584;-8.71E-03;0;0.334;-4.41E-03;-9.473
-0.612;0.02;0;1.763;-2.062;-8.048
-0.611;-0.012;0;1.681;-1.381;-7.614
-0.557;-0.018;0;0.54;-0.509;-10.016
-0.561;-0.029;0;2.167;-2.415;-9.156
-0.563;-4.37E-03;0;-0.776;-4.336;-11.432
-0.589;-0.019;0;0.356;-1.092;-11.809
-0.572;-9.71E-03;0;-0.459;-4.078;-8.337
-0.586;1.80E-03;0;-0.489;0.183;-9.702
-0.598;6.47E-03;0;2.189;-1.859;-9.104
-0.596;0.017;0;-2.219;-0.772;-8.883
-0.584;3.70E-03;0;-0.992;0.31;-11.669
-0.603;-3.51E-03;0;-1.759;-2.829;-11.092
-0.636;-0.024;0;-0.348;-1.726;-7.703
-0.644;-0.011;0;-2.222;-3.769;-9.217
-0.623;0.01;0;-2.321;-1.759;-10.262
-0.621;0.017;0;-2.06;0.46;-11.424
-0.61;9.95E-03;0;-0.322;-1.788;-7.727
-0.646;4.19E-03;0;1.543;-3.538;-7.569
-0.614;-3.71E-03;0;-1.668;0.688;-8.82
-0.624;0.032;0;-0.312;-0.75;-10.237
-0.63;-0.031;0;-1.409;1.219;-9.41
-0.638;0.027;0;-0.479;0.876;-11.94
-0.628;-0.031;0;1.907;0.722;-7.43
-0.648;-0.028;0;1.24;-1.682;-10.027
-0.648;2.86E-03;0;0.026;0.539;-11.988
-0.651;0.01;0;-1.276;0.755;-8.138
-0.638;-1.82E-03;0;-1.376;-0.66;-9.553
-0.641;3.23E-03;0;-1.192;0.425;-11.164
-0.632;-0.023;0;2.15;-1.096;-11.166
-0.623;-0.02;0;-1.02;-0.519;-9.07
-0.641;0.026;0;-0.64;-0.572;-8.963
-0.629;0.03;0;0.26;0.137;-9.806
-0.651;-0.014;0;1.093;1.006;-9.201
-0.678;0.021;0;-0.178;-2.366;-10.899
-0.638;0.024;0;1.528;1.545;-8.553
-0.652;0.023;0;1.673;-1.322;-8.43
-0.667;0.029;0;0.995;-1.846;-8.759
-0.663;0.015;0;-0.431;-0.858;-9.88
-0.641;-0.017;0;0.031;1.492;-8.481
-0.68;-0.031;0;-0.678;1.359;-10.148
-0.636;-0.02;0;1.82;-1.998;-9.785
-0.643;3.91E-03;0;1.016;-9.45E-03;-7.796
-0.662;-9.16E-03;0;2.35E-03;-0.686;-11.748
-0.64;-0.017;0;-1.314;2.385;-11.209
-0.647;-0.029;0;-1.413;-1.614;-9.366
-0.648;-0.02;0;-0.302;2.777;-10.769
-0.678;3.34E-03;0;-2.282;0.479;-8.743
-0.674;-0.024;0;1.199;0.308;-10.939
-0.643;0.017;0;1.629;1.435;-9.413
-0.658;0.032;0;-2.011;-0.584;-11.853
-0.632;-0.026;0;1.754;-0.365;-8.059
-0.652;0.014;0;2.437;0.869;-10.249
-0.642;-0.013;0;0.971;0.623;-8.119
-0.631;-0.011;0;1.785;-1.088;-10.287
-0.614;6.26E-03;0;-1.733;-0.178;-7.82
-0.649;-0.027;0;1.708;2.398;-8.357
-0.608;1.37E-03;0;-0.184;3.291;-8.837
-0.636;0.012;0;-0.254;-0.754;-9.703
-0.617;9.77E-04;0;-0.201;-0.167;-8.467
-0.604;9.93E-03;0;-0.97;2.263;-7.31
-0.623;-4.87E-03;0;1.75;2.084;-7.935
-0.635;0.019;0;2.043;-0.467;-9.739
-0.597;-7.95E-03;0;-0.262;2.607;-9.32
-0.618;5.38E-03;0;-1.281;0.301;-9.897
-0.639;0.03;0;-0.236;1.068;-9.683
-0.633;3.83E-03;0;-0.829;-0.459;-10.259
-0.644;-0.024;0;0.698;1.393;-8.15
-0.626;0.018;0;0.358;4.06;-10.96
-0.604;-0.028;0;0.715;0.394;-10.501
-0.602;0.033;0;-0.508;1.033;-8.973
-0.601;0.033;0;1.423;1.359;-8.557
-0.578;-0.029;0;1.176;2.191;-10.93
-0.624;-0.011;0;-1.276;1.981;-10.245
-0.59;0.019;0;1.27;1.288;-11.667
-0.574;4.34E-03;0;-0.073;4.553;-11.123
-0.599;0.032;0;0.242;2.131;-8.335
-0.581;9.17E-03;0;-1.563;2.594;-7.264
-0.593;-0.029;0;0.165;2.84;-11.792
-0.571;-1.56E-03;0;-1.566;1.472;-7.578
-0.584;9.11E-03;0;-0.356;2.299;-9.733
-0.573;6.76E-03;0;1.638;3.134;-10.893
-0.543;8.51E-03;0;-1.469;0.999;-11.518
-0.57;-0.015;0;0.499;2.892;-11.61
-0.57;-0.016;0;-2.136;4.542;-9
-0.545;-0.027;0;0.471;0.508;-8.87
-0.534;6.33E-03;0;2.088;2.004;-7.325
-0.563;0.014;0;0.333;1.388;-10.96
-0.556;0.025;0;-0.632;4.351;-8.082
-0.556;-0.015;0;1.306;5.339;-9.868
-0.561;-0.013;0;-0.828;4.529;-7.453
-0.514;-5.03E-04;0;-2.054;1.964;-9.062
-0.487;1.94E-03;0;1.974;2.113;-7.096
-0.486;0.029;0;2.336;3.789;-7.311
-0.492;0.01;0;-0.519;2.217;-9.083
-0.486;-0.015;0;1.689;1.603;-7.175
-0.489;0.017;0;0.434;1.736;-7.053
-0.519;-0.014;0;1.823;2.905;-8.685
-0.491;0.025;0;-2.308;2.438;-7.374
-0.479;-0.024;0;-1.059;4.271;-8.765
-0.477;2.28E-03;0;1.443;1.467;-10.78
-0.47;0.034;0;-1.472;5.669;-10.173
-0.478;4.63E-03;0;1.392;3.59;-7.493
-0.443;-9.61E-03;0;0.704;4.071;-7.652
-0.463;8.79E-04;0;1.982;5.746;-7.616
-0.418;0.024;0;-1.248;2.26;-7.933
-0.432;-0.022;0;-1.693;3.04;-10.819
-0.466;7.80E-03;0;1.477;3.855;-8.013
-0.454;0.014;0;-1.682;5.2;-9.181
-0.447;-5.81E-03;0;1.146;1.588;-7.59
-0.397;0.022;0;2.251;2.061;-8.949
-0.405;4.59E-03;0;-1.387;1.984;-8.922
-0.38;-2.98E-04;0;1.604;1.716;-11.241
-0.365;-5.80E-03;0;-2.255;2.127;-7.871
-0.408;5.82E-03;0;-0.071;2.963;-9.559
-0.354;0.016;0;-0.936;4.928;-11.132
-0.398;-0.03;0;2.409;6.47;-6.645
-0.393;-0.011;0;0.837;3.015;-6.491
-0.38;0.032;0;0.494;3.21;-7.576
-0.358;0.026;0;-0.919;3.212;-7.633
-0.376;-0.028;0;-0.455;6.105;-10.881
-0.369;-5.64E-03;0;-0.47;2.532;-9.029
-0.313;0.033;0;0.372;5.772;-7.433
-0.301;7.08E-03;0;-0.635;2.043;-10.855
-0.287;0.033;0;1.846;2.824;-8.917
-0.319;0.032;0;-0.158;3.192;-7.168
-0.334;-3.89E-03;0;-2.032;2.429;-9.864
-0.303;-1.64E-03;0;-2.009;5.664;-10.776
-0.296;-1.03E-03;0;-1.891;3.404;-10.802
-0.277;-0.016;0;-0.7;4.208;-8.004
-0.251;8.26E-03;0;0.557;6.951;-6.521
-0.29;-4.61E-03;0;-0.447;3.523;-8.144
-0.247;-0.011;0;0.938;5.206;-9.32
-0.276;-5.49E-03;0;1.783;5.383;-8.681
-0.213;-2.73E-03;0;-0.674;3.553;-6.424
-0.206;6.46E-03;0;2.071;6.3;-7.432
-0.234;0.016;0;1.057;3.219;-7.955
-0.248;-0.024;0;0.54;3.183;-7.674
-0.211;0.028;0;-0.896;2.911;-7.748
-0.202;-2.03E-03;0;0.135;6.833;-7.994
-0.227;0.033;0;0.341;3.707;-8.586
-0.168;-4.54E-03;0;1.447;3.039;-9.463
-0.159;0.028;0;1.814;3.834;-6.243
-0.198;-2.17E-03;0;-0.552;5.338;-7.838
-0.14;-2.59E-03;0;-1.421;6.02;-7.001
-0.165;0.028;0;5.90E-03;4.603;-8.183
-0.141;-3.04E-03;0;1.348;4.815;-6.678
-0.158;0.025;0;-0.458;2.779;-10.408
-0.134;0.034;0;1.265;5.422;-10.645
-0.155;-3.65E-03;0;-1.395;3.235;-7.916
-0.112;-0.016;0;-0.526;2.959;-8.437
-0.127;-0.024;0;2.314;5.655;-10.331
-0.1;0.019;0;0.35;2.543;-6.486
-0.104;-0.03;0;1.538;2.902;-7.543
-0.092;0.015;0;-0.494;4.327;-8.536
-0.062;3.90E-03;0;-1.661;3.752;-6.202
-0.048;-8.92E-03;0;0.065;5.007;-8.809
-0.069;-9.06E-03;0;2.221;6.842;-7.821
-0.085;-0.013;0;1.777;7.249;-7.662
-0.021;-9.34E-03;0;-1.75;2.569;-6.763
-6.23E-03;-0.016;0;1.275;6.836;-9.058
-0.016;-9.22E-03;0;1.046;5.233;-7.043
-0.025;-0.024;0;0.921;6.655;-9.579
-7.03E-03;-0.027;0;-1.382;4.673;-6.437
-0.027;0.022;0;2.064;3.302;-10.407
-0.013;-2.78E-03;0;1.008;3.113;-9.324
0.028;-0.02;0;-0.631;5.029;-9.137
0.026;-1.10E-03;0;-2.297;7.275;-7.13
0.032;7.55E-03;0;0.118;2.779;-7.647
0.071;0.035;0;0.325;6.839;-7.041
0.049;0.018;0;-1.381;5.924;-7.31
0.047;4.78E-03;0;-1.404;6.421;-9.382
0.084;0.026;0;1.72;6.739;-8.541
0.09;-0.017;0;1.282;2.74;-9.541
0.11;-0.018;0;1.924;4.482;-10.014
0.121;-0.013;0;-0.271;2.979;-6.531
0.082;0.019;0;-1.1;5.981;-10.102
0.105;-8.91E-03;0;1.65;4.866;-7.564
0.124;-0.012;0;-0.452;3.793;-10.698
0.136;-1.90E-03;0;1.624;5.625;-10.719
0.111;6.66E-03;0;1.259;2.695;-6.728
0.159;-0.011;0;2.327;3.596;-7.957
0.15;0.014;0;-0.907;4.204;-9.594
0.158;0.031;0;1.009;6.791;-9.798
0.176;0.011;0;2.302;5.485;-6.14
0.14;0.018;0;2.365;2.573;-8.912
0.192;0.031;0;-0.056;4.057;-7.123
0.21;3.31E-03;0;1.167;3.674;-8.957
0.21;-3.75E-03;0;0.452;6.969;-9.878
0.211;-8.93E-03;0;0.6;4.562;-7.037
0.225;0.027;0;-1.644;7.026;-9.927
0.211;0.021;0;0.053;6.632;-8.062
0.241;-0.029;0;-2.171;6.44;-6.404
0.256;5.01E-03;0;-0.907;3.923;-7.449
0.237;-0.016;0;-0.849;2.425;-6.247
0.267;0.014;0;-0.567;6.115;-10.836
0.257;-0.018;0;0.829;5.495;-10.483
0.29;0.02;0;-1.252;4.919;-8.013
0.238;0.021;0;0.384;4.991;-6.803
0.262;-0.015;0;1.412;3.894;-8.202
0.285;1.06E-03;0;-1.521;5.459;-9.418
0.289;0.025;0;1.553;3.369;-10.629
0.289;0.027;0;-0.979;5.149;-6.959
0.336;0.025;0;1.959;2.826;-7.897
0.308;0.031;0;0.268;6.617;-8.44
0.32;0.025;0;0.193;3.755;-6.68
0.297;-0.023;0;-1.559;2.788;-9.574
0.321;0.016;0;0.648;3.229;-9.404
0.327;-0.02;0;-1.124;4.44;-6.988
0.352;-1.81E-03;0;-1.688;4.481;-8.748
0.353;0.018;0;-1.499;4.391;-7.595
0.34;0.025;0;-2.211;5.871;-10.73
0.392;0.016;0;2.005;2.034;-6.846
0.368;-4.31E-03;0;-1.075;4.164;-8.419
0.382;-0.025;0;1.821;2.734;-8.112
0.422;-5.80E-03;0;-1.839;2.332;-8.574
0.385;0.021;0;-1.296;5.162;-8.847
0.428;0.014;0;-0.554;4.921;-9.201
0.398;0.013;0;-2.153;1.654;-11.345
0.421;-0.015;0;2.133;5.635;-11.116
0.432;2.79E-03;0;-0.383;4.654;-7.794
0.432;0.019;0;-1.875;3.036;-9.568
0.467;-7.56E-03;0;1.589;4.166;-7.057
0.413;-0.017;0;-1.417;5.76;-10.548
0.47;-5.78E-03;0;2.107;3.873;-9.599
0.431;-7.74E-03;0;2.292;5.464;-8.237
0.483;-0.012;0;-1.982;2.375;-7.623
0.463;-9.99E-03;0;-1.919;3.875;-11.477
0.441;-0.019;0;0.455;4.73;-8.167
0.503;8.85E-03;0;-0.051;4.876;-7.64
0.511;0.023;0;-1.169;2.847;-7.189
0.479;0.016;0;0.568;5.107;-9.47
0.509;-0.012;0;-2.141;5.11;-8.552
0.524;3.39E-03;0;0.457;4.58;-10.789
0.483;-0.029;0;0.074;0.904;-11.13
0.487;0.022;0;-1.504;3.501;-11.048
0.508;-0.014;0;1.006;2.91;-9.85
0.553;0.027;0;0.122;1.974;-11.533
0.52;7.04E-03;0;-0.757;4.785;-10.836
0.538;0.025;0;0.993;2.434;-8.619
0.539;0.032;0;2.028;1.876;-10.32
0.519;-1.53E-03;0;2.451;2.65;-7.041
0.546;0.027;0;-0.225;3.937;-9.569
0.57;0.026;0;2.148;3.174;-11.291
0.532;0.024;0;0.715;4.828;-10.718
0.529;0.01;0;1.76;2.648;-8.489
0.531;0.019;0;-1.892;1.592;-8.057
0.562;0.031;0;-0.831;4.865;-11.395
0.564;0.024;0;-0.312;3.874;-11
0.598;-2.01E-03;0;2.237;1.359;-11.484
0.551;-0.01;0;1.392;1.076;-7.52
0.578;0.03;0;-2.08;1.504;-11.688
0.603;-1.88E-03;0;1.382;1.274;-10.048
0.611;0.028;0;0.344;1.801;-7.952
0.612;-5.94E-03;0;-1.076;3.54;-10.89
0.573;1.38E-03;0;1.042;-0.052;-7.501
0.611;-0.013;0;2.008;3.262;-8.388
0.636;0.018;0;-2.134;3.096;-10.641
0.633;-0.021;0;-2.115;2.681;-7.806
0.618;5.94E-03;0;-2.141;1.266;-10.339
0.603;0.031;0;1.758;1.246;-9.115
0.603;7.14E-03;0;2.349;-0.455;-8.523
0.65;-0.012;0;-1.617;0.497;-10.688
0.627;-0.024;0;-0.631;3.127;-11.999
0.596;-7.30E-03;0;2.38;2.89;-7.391
0.598;-6.11E-03;0;0.485;0.741;-11.735
0.646;-2.97E-03;0;-0.858;0.812;-7.286
0.631;-6.82E-03;0;-1.887;-0.824;-9.374
0.657;-5.86E-03;0;1.748;2.501;-11.797
0.659;-9.59E-03;0;0.61;0.604;-8.176
0.609;0.033;0;0.189;-0.212;-7.566
0.616;-7.56E-03;0;1.957;-0.547;-8.228
0.637;0.024;0;-0.142;1.284;-11.006
0.658;-0.026;0;0.086;1.098;-9.649
0.678;-0.012;0;-2.273;2.283;-11.883
0.653;0.024;0;2.374;-0.282;-10.745
0.664;0.028;0;1.81;0.573;-10.752
0.674;-4.91E-03;0;-2.248;-0.708;-9.663
0.654;-3.37E-03;0;0.039;1.553;-11
0.651;0.01;0;2.22;0.672;-10.894
0.659;0.029;0;-1.44;1.653;-11.316
0.661;-0.024;0;-1.44;0.26;-11.55
0.655;0.027;0;1.932;-0.788;-8.339
0.67;-0.015;0;2.041;0.118;-12.02
0.684;2.86E-03;0;2.357;2.593;-12.055
0.674;4.58E-03;0;0.788;-1.864;-11.502
0.68;-0.025;0;-0.559;-1.848;-11.587
0.659;-0.031;0;-2.195;1.358;-8.99
0.641;-0.018;0;2.254;1.678;-9.313
0.649;-0.019;0;-0.524;2.233;-8.66
0.654;-0.022;0;1.524;2.075;-8.08
0.68;4.44E-04;0;-0.342;-0.644;-11.792
0.666;-0.021;0;-1.655;-2.157;-11.766
0.679;0.027;0;1.282;-2.335;-8.581
0.634;0.017;0;0.306;-2.404;-10.487
0.637;-0.017;0;-0.392;-2.46;-9.657
0.681;7.15E-03;0;-0.663;-2.286;-10.694
0.649;-0.013;0;-2.13;-0.891;-10.498
0.638;0.02;0;0.796;0.644;-9.36
0.679;0.034;0;-1.302;-2.43;-10.279
0.639;-7.36E-03;0;-2.098;0.418;-10.949
0.624;0.018;0;-1.208;0.614;-11.984
0.639;-0.019;0;-0.458;-1.09;-10.409
0.647;-7.25E-03;0;2.329;0.522;-9.945
0.654;-0.028;0;0.696;-1.385;-12.042
0.667;7.02E-03;0;-1.129;-0.69;-11.835
0.641;-0.026;0;-1.267;-2.961;-7.478
0.66;8.09E-03;0;-1.842;0.257;-9.926
0.635;-0.012;0;-2.303;0.56;-11.468
0.616;0.011;0;0.263;-3.098;-11.135
0.655;-5.79E-03;0;-1.935;-3.661;-11.408
0.609;0.032;0;-1.708;-2.173;-11.836
0.666;9.38E-03;0;0.644;-3.713;-11.037
0.613;-0.01;0;-2.131;-1.861;-7.716
0.63;0.023;0;-1.969;0.315;-9.798
0.599;-4.83E-03;0;1.566;-1.553;-11.196
0.617;4.42E-03;0;1.556;-2.302;-11.779
0.598;0.034;0;0.199;-3.319;-8.05
0.604;-0.02;0;0.2;-2.021;-11.484
0.62;0.013;0;0.882;-4.142;-8.418
0.583;-0.021;0;0.357;-1.263;-11.868
0.625;0.013;0;-0.849;-3.591;-8.482
0.627;-0.024;0;-0.313;-2.974;-7.507
0.58;0.012;0;1.967;-3.058;-8.369
0.603;0.035;0;0.645;-0.145;-7.533
0.603;-0.021;0;-0.707;-3.915;-8.324
0.559;-0.021;0;-1.343;-3.672;-7.18
0.619;-0.013;0;0.675;0.071;-8.528
0.554;-0.01;0;-2.338;-4.176;-11.412
0.596;6.18E-03;0;0.867;-0.153;-11.524
0.571;-0.012;0;2.397;-1.314;-9.868
0.592;9.26E-03;0;0.542;-0.705;-9.365
0.588;0.019;0;1.703;-0.995;-11.404
0.547;-0.02;0;-0.984;-4.142;-7.308
0.536;0.011;0;-2.032;-3.467;-8.61
0.573;2.18E-03;0;-1.506;-4.86;-8.506
0.539;-6.88E-03;0;0.851;-2.886;-9.447
0.562;0.013;0;-0.755;-0.745;-11.507
0.573;0.022;0;1.956;-2.089;-11.169
0.515;-1.40E-03;0;1.206;-2.405;-7.507
0.543;-0.031;0;2.41;-0.68;-10.423
0.551;0.018;0;1.019;-4.057;-9.943
0.49;-3.25E-03;0;-0.538;-3.445;-11.212
0.54;0.031;0;-5.26E-03;-2.757;-7.219
0.496;-0.025;0;-0.756;-2.374;-9.253
0.497;-0.021;0;2.41;-1.238;-10.576
0.51;-0.026;0;0.27;-3.341;-10.553
0.515;-0.024;0;0.392;-4.101;-10.961
0.463;0.023;0;0.398;-2.664;-9.848
0.475;-0.029;0;1.722;-5.114;-7.318
0.501;0.018;0;0.666;-3.814;-10.771
0.458;0.024;0;0.648;-4.234;-11.468
0.443;0.011;0;1.04;-3.535;-8.6
0.438;0.013;0;0.936;-4.014;-9.346
0.482;-5.91E-03;0;-0.05;-3.989;-7.811
0.433;-0.021;0;0.87;-4.785;-9.69
0.435;-0.02;0;2.267;-4.223;-9.725
0.429;7.71E-03;0;1.329;-5.962;-10.925
0.437;-0.023;0;-0.489;-3.552;-8.831
0.403;-0.028;0;-0.444;-4.026;-7.745
0.449;-1.99E-03;0;-0.93;-3.782;-9.961
0.408;-0.024;0;0.902;-4.139;-7.503
0.404;0.014;0;-1.095;-4.423;-8.788
0.379;0.015;0;1.531;-2.296;-9.699
0.424;0.011;0;-1.055;-1.856;-10.299
0.379;-0.02;0;-1.581;-3.044;-9.997
0.408;-0.015;0;-1.462;-5.816;-8.482
0.384;0.03;0;-1.145;-5.629;-10.907
0.357;-0.029;0;-0.964;-2.453;-6.694
0.341;7.42E-03;0;-0.753;-4.389;-9.213
0.331;8.23E-03;0;-0.65;-2.305;-6.76
0.323;-0.016;0;1.596;-3.536;-9.607
0.333;-2.62E-03;0;-1.26;-6.303;-7.804
0.327;0.013;0;-1.038;-5.62;-10.562
0.294;0.023;0;-0.511;-4.122;-10.156
0.33;-0.026;0;-1.695;-2.674;-7.087
0.311;0.032;0;-0.316;-6.22;-7.674
0.275;-0.015;0;2.407;-6.237;-9.297
0.316;-0.02;0;2.405;-2.778;-7.065
0.286;5.32E-03;0;0.012;-5.837;-10.858
0.263;-0.019;0;-2.104;-4.695;-9.486
0.246;0.034;0;1.293;-2.715;-7.202
0.27;2.70E-04;0;-2.099;-2.173;-7.425
0.285;-4.26E-03;0;-0.502;-3.559;-7.181
0.28;0.013;0;1.814;-5.654;-9.056
0.211;-0.019;0;1.669;-5.642;-8.258
0.202;0.023;0;-2.127;-4.649;-8.48
0.2;5.50E-03;0;-0.336;-2.375;-8.708
0.232;0.025;0;-0.782;-4.413;-10.172
0.194;0.025;0;0.32;-6.991;-7.692
0.196;0.011;0;1.732;-4.846;-6.823
0.2;0.024;0;0.447;-3.209;-8.983
0.185;-9.25E-03;0;-1.93;-4.668;-9.293
0.169;-0.014;0;1.421;-3.271;-8.071
0.148;-0.019;0;2.102;-5.796;-8.624
0.164;-0.019;0;1.957;-6.802;-7.247
0.177;5.54E-03;0;1.861;-4.847;-7.285
0.118;0.019;0;1.347;-2.46;-9.56
0.144;-5.40E-03;0;1.918;-4.37;-9.223
0.119;-0.014;0;-0.203;-2.908;-7.406
0.088;0.021;0;1.177;-6.694;-9.739
0.116;-0.027;0;-0.681;-5.092;-7.979
0.085;-0.03;0;-0.306;-3.768;-9.37
0.102;-0.013;0;1.42;-5.776;-10.386
0.067;3.94E-03;0;0.724;-2.81;-6.26
0.102;0.023;0;0.239;-2.777;-10.306
0.052;-8.72E-03;0;0.615;-4.968;-10.437
0.047;-3.18E-03;0;1.025;-6.088;-9.5
0.05;-8.68E-03;0;0.078;-5.674;-10.442
0.019;0.014;0;0.104;-3.754;-9.899
0.043;-0.03;0;0.596;-6.001;-7.829
0.027;-1.54E-03;0;-0.485;-2.83;-8.037
0.038;0.03;0;0.275;-2.742;-6.716
0.031;9.70E-03;0;2.055;-3.769;-8.004
-0.01;3.18E-03;0;0.984;-4.22;-6.623
-1.79E-03;0.021;0;2.229;-4.512;-6.214
-5.78E-03;0.016;0;-2.211;-5.888;-10.746
-0.023;0.014;0;0.588;-3.217;-9.411
-0.057;0.019;0;1.031;-6.384;-6.567
-0.043;0.031;0;-0.761;-4.547;-10.36
-0.022;0.016;0;-0.472;-2.902;-7.869
-0.021;-0.024;0;1.215;-3.259;-6.705
-0.057;-0.015;0;1.78;-3.287;-9.307
-0.071;-7.61E-03;0;0.336;-2.908;-6.644
-0.109;0.026;0;1.188;-3.325;-9.889
-0.059;0.027;0;-1.339;-4.935;-10.776
-0.082;2.94E-03;0;2.138;-5.084;-9.396
-0.085;4.36E-03;0;-0.292;-6.741;-9.914
-0.077;6.91E-03;0;1.053;-5.572;-9.131
-0.127;2.39E-03;0;0.13;-6.482;-7.428
-0.124;0.035;0;1.565;-2.699;-7.529
-0.14;0.011;0;0.109;-5.15;-9.791
-0.113;0.027;0;1.179;-5.511;-7.606
-0.158;-9.67E-03;0;2.304;-3.65;-8.315
-0.155;-0.019;0;-0.25;-4.348;-7.558
-0.151;-4.31E-03;0;0.369;-4.67;-6.287
-0.154;0.017;0;0.765;-3.244;-10.712
-0.189;-0.024;0;-1.016;-2.644;-8.758
-0.211;-0.013;0;-1.901;-2.959;-6.899
-0.204;-8.91E-04;0;-0.869;-5.245;-9.972
-0.236;0.026;0;0.941;-3.273;-9.537
-0.223;-0.026;0;0.15;-2.413;-6.231
-0.203;-0.023;0;-1.787;-4.286;-9.164
-0.243;0.035;0;0.394;-3.257;-6.698
-0.217;0.026;0;1.743;-3.254;-9.411
-0.275;-0.016;0;-0.056;-3.983;-7.449
-0.223;3.88E-03;0;2.168;-5.142;-10.969
-0.271;0.024;0;1.622;-2.355;-7.032
-0.273;0.021;0;0.897;-4.983;-8.6
-0.256;-0.022;0;-0.663;-3.569;-9.602
-0.297;-0.029;0;0.178;-3.483;-10.955
-0.316;0.028;0;-1.915;-3.264;-7.374
-0.308;0.034;0;-0.795;-4.347;-8.834
-0.296;-0.028;0;1.751;-3.104;-8.64
-0.314;0.033;0;-1.481;-6.691;-7.414
-0.315;0.029;0;-1.389;-6.203;-6.947
-0.334;-4.91E-03;0;-1.877;-3.513;-9.625
-0.31;-9.39E-03;0;0.872;-4.555;-10.557
-0.326;0.027;0;1.184;-4.398;-8.515
-0.362;0.015;0;-0.118;-1.895;-8.567
-0.358;-0.014;0;-0.859;-2.084;-10.38
-0.345;-1.67E-03;0;-0.886;-2.425;-7.223
-0.36;-1.44E-03;0;-1.856;-2.013;-7.09
-0.344;0.016;0;0.984;-4.028;-8
-0.387;-0.028;0;0.161;-5.678;-10.729
-0.358;-0.024;0;-0.97;-3.306;-8.104
-0.405;0.013;0;-1.32;-4.358;-11.296
-0.408;0.031;0;0.536;-3.01;-10.349
-0.392;0.033;0;-1.521;-3.867;-9.034
-0.443;0.033;0;1.346;-5.161;-7.678
-0.435;-4.22E-03;0;-0.782;-2.319;-10.984
-0.411;-0.018;0;0.427;-4.445;-11.002
-0.466;0.011;0;0.386;-3.994;-8.724
-0.435;4.60E-03;0;-0.019;-3.661;-8.738
-0.416;-3.30E-03;0;1.032;-5.766;-9.567
-0.468;0.028;0;1.738;-3.308;-8.41
-0.473;-0.011;0;-1.091;-5.504;-8.392
-0.478;0.011;0;-1.894;-1.507;-10.248
-0.483;0.013;0;0.919;-2.561;-10.817
-0.488;0.033;0;-2.332;-4.402;-10.275
-0.481;-5.70E-03;0;1.439;-1.315;-9.331
-0.516;-0.027;0;1.962;-1.546;-7.805
-0.488;-0.031;0;-1.918;-2.288;-8.668
-0.475;-2.94E-04;0;1.9;-2.539;-9.074
-0.507;-0.011;0;1.47;-1.422;-6.837
-0.48;0.022;0;2.068;-2.883;-11.543
-0.532;-9.82E-03;0;-1.976;-1.273;-8.87
-0.542;-0.016;0;1.874;-4.198;-8.675
-0.491;0.023;0;0.208;-1.819;-8.553
-0.522;-8.05E-04;0;-0.516;-4.803;-9.338
-0.533;0.034;0;-0.996;-3.483;-10.378
-0.564;-0.023;0;0.366;-4.105;-10.678
-0.525;0.013;0;1.148;-4.498;-7.755
-0.561;-0.023;0;0.243;-4.088;-9.948
-0.566;0.013;0;-0.466;-1.167;-8.975
-0.543;0.01;0;1.21;-3.279;-8.579
-0.579;6.68E-03;0;1.642;-1.995;-7.699
-0.595;0.013;0;1.956;-0.14;-7.426
-0.588;6.40E-03;0;-1.946;-1.761;-8.712
-0.543;0.016;0;1.613;-1.241;-8.973
-0.549;0.014;0;0.692;-3.397;-10.528
-0.596;-0.011;0;1.456;-3.118;-11.031
-0.597;-0.031;0;-0.772;-0.12;-7.5
-0.604;-0.02;0;0.696;-0.838;-7.68
-0.595;-0.012;0;-1.07;-0.86;-9.176
-0.575;0.014;0;-0.563;-1.802;-10.851
-0.63;-4.83E-03;0;-1.999;-1.819;-9.751
-0.632;-9.20E-03;0;0.233;-1.652;-7.347
-0.607;-0.027;0;0.402;-1.628;-11.124
-0.624;-0.025;0;2.088;-1.774;-8.913
-0.612;6.43E-03;0;-0.895;-1.39;-8.369
-0.593;-0.027;0;2.373;-1.223;-9.201
-0.63;2.32E-03;0;1.736;-0.557;-7.475
-0.604;-3.24E-03;0;0.493;0.705;-10.042
-0.64;1.14E-03;0;-0.082;-2.019;-8.205
-0.614;-0.014;0;-0.441;0.73;-7.809
-0.606;0.027;0;2.333;-3.723;-7.516
-0.662;-0.026;0;-0.097;-1.455;-10.911
-0.644;-7.49E-03;0;-0.841;0.205;-9.248
-0.603;8.21E-03;0;-0.102;-0.117;-8.074
-0.625;1.58E-03;0;1.95;-2.149;-9.004
-0.606;0.01;0;-2.058;-1.254;-11.324
-0.623;-0.027;0;-2.232;0.205;-12.053
-0.632;0.02;0;1.451;1.111;-11.585
-0.674;-7.85E-03;0;0.079;-1.419;-9.891
-0.643;7.59E-03;0;-1.749;1.049;-9.287
-0.651;-0.028;0;1.593;-1.541;-11.753
-0.633;-0.031;0;1.981;0.441;-10.773
-0.645;-0.02;0;1.934;-1.415;-8.652
-0.628;0.015;0;1.909;-2.386;-8.676
-0.672;4.18E-04;0;1.842;-1.865;-9.492
-0.671;-0.029;0;0.885;-2.348;-10.114
-0.633;0.021;0;2.212;1.709;-7.602
-0.625;5.86E-03;0;0.658;-1.462;-10.702
-0.653;0.026;0;0.602;-0.792;-7.636
-0.657;-5.89E-03;0;-1.873;1.066;-11.876
-0.689;0.032;0;-0.507;0.937;-9.617
-0.643;8.13E-03;0;0.763;1.498;-8.367
-0.654;-0.03;0;-0.298;-0.801;-7.993
-0.633;-0.029;0;-0.225;0.486;-9.677
-0.675;-1.31E-03;0;-1.974;-0.744;-8.23
-0.67;-2.00E-03;0;0.616;1.64;-7.967
-0.676;-4.40E-03;0;0.998;0.509;-8.223
-0.637;2.75E-03;0;1.309;-0.375;-9.088
-0.63;0.012;0;1.701;-1.332;-9.587
-0.632;0.015;0;-1.025;-1.529;-10.331
-0.676;0.025;0;-1.16;0.34;-10.873
-0.674;-9.14E-03;0;1.568;2.271;-7.967
-0.64;-5.06E-03;0;0.206;0.622;-9.334
-0.645;-0.029;0;0.206;-0.248;-9.489
-0.629;8.27E-03;0;-1.617;1.644;-11.372
-0.662;0.02;0;-0.714;0.246;-8.651
-0.625;-0.011;0;0.261;-1.363;-10.956
-0.654;0.015;0;2.096;3.144;-8.766
-0.631;0.024;0;2.047;1.834;-8.274
-0.618;-0.027;0;1.025;1.63;-9.108
-0.621;-5.67E-03;0;0.957;1.563;-8.677
-0.637;-6.29E-03;0;-0.113;-1.098;-11.031
-0.641;2.25E-03;0;-2.222;2.529;-11.681
-0.624;0.035;0;2.083;3.103;-11.521
-0.653;-0.024;0;-0.251;0.97;-11.809
-0.658;-9.42E-04;0;1.734;3.195;-11.964
-0.604;1.09E-03;0;1.999;1.879;-11.42
-0.627;0.019;0;-1.958;2.544;-9.837
-0.637;0.019;0;0.249;2.822;-9.624
-0.625;0.011;0;-2.11;1.915;-10.731
-0.607;-0.015;0;-1.404;3.104;-10.707
-0.625;-8.49E-03;0;-1.882;3.819;-9.165
-0.596;-0.015;0;-2.216;3.271;-11.33
-0.622;0.028;0;-1.009;2.026;-9.262
-0.617;0.018;0;-0.11;0.808;-9.948
-0.614;-0.019;0;1.857;4.143;-9.719
-0.582;-0.013;0;0.41;-0.089;-7.33
-0.621;0.031;0;-0.763;3.007;-9.705
-0.593;0.023;0;-1.148;2.74;-7.953
-0.589;-0.018;0;1.675;2.476;-8.192
-0.576;0.022;0;-1.153;0.015;-10.404
-0.562;0.026;0;-0.949;3.744;-10.099
-0.569;0.029;0;0.022;0.483;-10.971
-0.58;-0.013;0;1.608;0.102;-11.745
-0.56;-0.029;0;0.715;1.742;-8.559
-0.548;-9.39E-03;0;0.713;1.607;-7.839
-0.581;-0.027;0;-0.631;4.439;-11.08
-0.532;-0.03;0;-0.573;3.015;-11.732
-0.564;9.20E-03;0;-0.738;1.179;-7.41
-0.541;-0.03;0;0.969;2.948;-10.968
-0.575;2.78E-03;0;-0.412;3.697;-10.834
-0.559;0.034;0;-0.621;2.074;-8.513
-0.56;-9.84E-03;0;1.595;1.182;-8.262
-0.51;4.62E-03;0;-0.116;1.752;-9.199
-0.542;-2.62E-03;0;-1.631;4.625;-7.667
-0.507;-0.016;0;-2.096;3.022;-10.416
-0.523;-0.024;0;1.013;2.799;-8.435
-0.542;0.013;0;1.873;3.352;-10.438
-0.513;-0.019;0;-2.312;3.959;-10.133
-0.493;-0.019;0;-0.014;5.444;-6.868
-0.471;1.43E-03;0;-0.774;3.294;-9.393
-0.472;0.032;0;-0.697;1.877;-8.208
-0.511;0.031;0;0.486;2.153;-9.079
-0.479;-0.027;0;-1.144;2.742;-7.018
-0.482;-0.012;0;1.53;5.596;-8.649
-0.48;0.015;0;1.173;2.766;-9.754
-0.493;4.65E-03;0;-0.466;4.118;-9.514
-0.437;8.33E-04;0;0.762;3.148;-9.266
-0.483;0.025;0;-0.644;5.509;-9.099
-0.468;-4.31E-03;0;1.097;3.824;-9.476
-0.46;0.034;0;1.746;2.518;-7.795
-0.465;2.81E-03;0;-1.344;4.474;-7.436
-0.412;8.19E-04;0;-2.103;4.763;-7.323
-0.408;-2.98E-03;0;-0.037;2.108;-8.629
-0.406;-0.03;0;1.427;6.153;-10.27
-0.437;-0.021;0;0.571;4.299;-9.576
-0.431;7.16E-04;0;2.271;1.832;-8.928
-0.404;-0.022;0;1.564;2.629;-9.175
-0.38;-0.012;0;-1.424;2.829;-6.86
-0.409;-0.024;0;2.113;2.36;-6.876
-0.367;-0.012;0;0.671;3.783;-8.434
-0.391;-1.31E-03;0;0.411;4.804;-10.656
-0.39;0.022;0;-0.227;5.761;-10.135
-0.341;0.034;0;-0.793;4.741;-8.095
-0.339;-0.016;0;2.207;6.276;-10.626
-0.34;0.01;0;0.187;5.15;-10.056
-0.347;0.018;0;1.63;5.633;-10.867
-0.326;0.025;0;-2.155;5.821;-9.679
-0.29;-1.00E-03;0;-0.369;4.215;-6.839
-0.316;6.22E-03;0;0.362;6.573;-9.484
-0.313;0.014;0;0.092;6.181;-8.693
-0.265;-0.021;0;1.599;5.686;-7.349
-0.292;-1.65E-03;0;1.163;4.191;-7.123
-0.293;-2.95E-03;0;-0.973;5.431;-7.63
-0.269;-0.017;0;1.533;3.893;-7.329
-0.241;-0.026;0;0.935;5.3;-10.692
-0.228;0.016;0;1.633;5.093;-8.111
-0.233;9.04E-03;0;2.342;4.437;-8.647
-0.243;0.027;0;2.003;3.166;-7.977
-0.211;-0.022;0;-2.018;3.486;-7.878
-0.246;0.033;0;-1.315;4.54;-7.166
-0.248;-0.023;0;2.13;3.325;-10.001
-0.227;4.27E-03;0;1.935;4.419;-10.547
-0.199;-8.34E-03;0;-0.548;5.316;-10.293
-0.198;0.013;0;1.17;7.132;-9.905
-0.164;-8.23E-03;0;-1.456;5.739;-7.746
-0.193;-0.029;0;-1.387;3.618;-8.266
-0.203;4.82E-03;0;1.753;3.465;-8.845
-0.169;0.03;0;0.886;5.648;-7.084
-0.166;-0.022;0;0.498;3.898;-9.618
-0.151;-0.01;0;-0.324;3.233;-9.329
-0.139;-0.012;0;1.929;4.632;-10.183
-0.136;0.017;0;-1.003;2.513;-7.368
-0.11;-7.69E-03;0;-0.939;3.505;-7.855
-0.125;0.031;0;-0.039;5.752;-8.68
-0.097;0.034;0;0.801;4.887;-8.629
-0.116;0.012;0;0.608;4.217;-10.61
-0.124;0.013;0;0.334;7.212;-7.916
-0.091;0.023;0;-1.388;4.2;-10.857
-0.102;1.05E-03;0;-1.707;5.27;-9.178
-0.037;0.027;0;1.528;3.124;-8.165
-0.062;0.027;0;2.45;4.682;-7.313
-0.031;4.43E-03;0;-1.238;3.305;-7.787
-0.056;0.035;0;0.168;5.169;-10.24
-0.038;5.22E-03;0;0.866;4.338;-10.257
-0.06;1.31E-03;0;-1.593;2.917;-6.3
-0.029;0.026;0;-0.603;4.001;-7.637
-0.043;-6.39E-03;0;-2.267;7.102;-8.62
-0.025;0.01;0;1.014;6.311;-9.036
-5.79E-03;0.017;0;-0.065;5.507;-7.137
-2.78E-03;0.017;0;-1.35;4.163;-9.006
0.041;0.026;0;2.22;4.085;-7.495
0.012;0.032;0;-0.183;7.277;-7.146
0.022;0.028;0;0.675;3.3;-6.749
0.048;0.011;0;-1.118;5.953;-6.943
0.033;-0.026;0;-0.752;7.249;-8.171
0.031;0.027;0;-1.033;3.888;-10.827
0.068;-0.024;0;-1.158;5.324;-6.81
0.091;-0.014;0;-0.842;5.727;-6.791
0.059;3.78E-03;0;1.238;3.164;-9.652
0.067;-0.028;0;-0.222;6.064;-6.804
0.108;2.07E-03;0;-2.346;4.224;-7.604
0.136;0.012;0;-0.871;4.991;-7.381
0.126;-9.36E-03;0;0.666;4.288;-6.409
0.114;0.02;0;0.763;5.576;-9.471
0.154;7.64E-03;0;-2.04;5.983;-9.694
0.13;9.94E-03;0;-0.081;3.92;-6.457
0.131;-6.24E-04;0;2.048;5.089;-8.369
0.172;0.013;0;1.82;4.122;-10.142
0.169;-0.016;0;2.27;3.763;-8.983
0.145;8.29E-03;0;2.001;6.294;-9.107
0.167;-0.012;0;-1.964;2.455;-6.241
0.181;9.34E-03;0;0.612;4.747;-6.205
0.227;0.025;0;1.369;6.433;-9.204
0.199;0.026;0;0.071;7.015;-10.359
0.249;3.22E-03;0;0.191;3.485;-7.136
0.247;-0.015;0;0.354;5.057;-9.257
0.214;-0.027;0;1.187;6.4;-8.568
0.22;-0.021;0;-1.047;5.453;-9.617
0.274;6.39E-04;0;-0.542;6.243;-10.697
0.226;0.013;0;0.187;6.672;-8.169
0.232;0.012;0;-1.401;6.93;-8.645
0.251;5.57E-03;0;-2.346;6.185;-8.881
0.258;0.024;0;0.548;6.35;-7.467
0.271;0.011;0;1.764;2.433;-7.258
0.287;0.035;0;2.281;3.203;-7.02
0.333;0.031;0;-0.735;2.295;-9.159
0.281;9.58E-03;0;0.438;5.375;-9.104
0.332;-0.025;0;-1.586;3.879;-9.783
0.342;0.016;0;-2.308;3.626;-7.383
0.359;7.46E-03;0;-1.38;3.751;-9.882
0.311;0.014;0;2.322;6.612;-9.491
0.347;-0.029;0;-0.234;3.216;-9.252
0.322;0.028;0;0.386;4.873;-8.574
0.341;-8.13E-03;0;0.605;5.087;-6.523
0.394;1.96E-03;0;-2.286;3.046;-6.537
0.399;0.024;0;0.478;4.399;-7.766
0.349;2.05E-03;0;0.556;2.389;-11.067
0.379;-0.026;0;1.815;2.961;-10.446
0.397;-7.46E-03;0;-1.568;5.568;-7.753
0.422;0.024;0;-1.152;3.132;-8.526
0.401;-9.02E-03;0;0.727;2.684;-7.221
0.381;-7.27E-04;0;-1.958;5.901;-9.261
0.448;0.028;0;-1.734;5.711;-9.992
0.405;-3.12E-03;0;-2.002;2.321;-11.35
0.459;-0.018;0;2.365;3.787;-8.19
0.409;-0.014;0;-1.622;2.587;-7.106
0.464;-0.027;0;-1.047;2.663;-11.036
0.417;-1.46E-03;0;-0.757;5.296;-11.182
0.484;5.36E-03;0;-0.903;1.536;-11.346
0.456;0.026;0;-2.139;4.048;-10.246
0.437;-4.25E-03;0;-0.511;3.254;-9.764
0.459;0.031;0;2.075;1.224;-9.234
0.481;3.22E-03;0;0.579;2.479;-9.152
0.507;-9.99E-03;0;-0.02;1.128;-10.863
0.479;0.02;0;1.67;4.508;-9.322
0.479;-0.012;0;1.137;5.193;-7.894
0.527;-0.015;0;0.479;4.928;-10.676
0.499;7.73E-03;0;-2.261;5.479;-7.509
0.498;-9.28E-03;0;-1.796;2.037;-8.886
0.531;0.023;0;-0.573;3.969;-8.642
0.551;0.01;0;-0.857;1.041;-8.398
0.494;-0.01;0;-0.231;1.018;-9.328
0.552;-0.026;0;1.089;5.047;-8.034
0.512;7.02E-03;0;-0.738;4.494;-8.163
0.545;-2.47E-04;0;-0.782;4.747;-10.535
0.561;0.03;0;0.566;2.952;-9.64
0.577;5.97E-03;0;-0.325;5.071;-9.315
0.573;0.018;0;-0.14;2.475;-7.079
0.528;0.032;0;-1.726;4.556;-9.059
0.534;-0.03;0;0.608;3.218;-10.591
0.593;-0.023;0;2.262;4.19;-9.413
0.567;-0.018;0;1.522;0.842;-7.264
0.603;4.73E-03;0;-2.351;4.702;-8.407
0.604;-0.01;0;-0.582;4.277;-7.552
0.615;-1.69E-03;0;-2.227;1.799;-7.719
0.581;5.65E-03;0;2.015;1.162;-7.356
0.58;-0.021;0;-1.329;0.787;-9.129
0.6;0.022;0;0.058;1.807;-10.168
0.575;-1.11E-03;0;0.953;2.397;-8.311
0.631;9.60E-03;0;-0.449;1.675;-10.886
0.607;0.028;0;0.69;0.494;-8.957
0.627;-0.012;0;0.994;2.872;-8.729
0.611;0.013;0;-1.581;1.149;-10.503
0.648;-0.026;0;2.385;1.924;-8.574
0.646;0.029;0;0.907;2.836;-11.684
0.598;1.54E-03;0;-0.613;2.61;-10.837
0.651;0.026;0;2.271;0.087;-12.022
0.621;0.019;0;1.758;-0.412;-11.695
0.627;0.03;0;0.817;3.249;-10.214
0.655;-0.015;0;0.982;1.197;-8.985
0.61;-0.023;0;-0.251;2.087;-10.376
0.63;-0.028;0;-0.483;3.529;-11.537
0.63;0.024;0;0.028;0.476;-11.059
0.621;-0.011;0;-1.836;3.37;-8.811
0.623;-0.012;0;0.836;1.835;-12.038
0.643;0.025;0;-0.916;0.574;-9.165
0.627;0.029;0;1.502;0.462;-8.977
0.667;-5.17E-03;0;-2.124;0.539;-7.487
0.629;0.02;0;1.13;2.633;-10.983
0.665;0.028;0;-1.777;1.017;-9.733
0.651;-0.01;0;-0.631;2.811;-7.87
0.679;0.013;0;-1.534;2.759;-8.763
0.656;0.016;0;-0.593;1.356;-8.686
0.649;-9.48E-03;0;-1.959;-0.613;-10.18
0.652;0.028;0;2.189;-1.337;-11.034
0.65;7.07E-03;0;1.99;0.411;-7.356
0.65;6.64E-03;0;-2.252;-0.746;-8.283
0.632;0.019;0;-0.641;-0.477;-9.168
0.645;2.84E-04;0;0.34;-0.78;-9.616
0.689;-0.026;0;-0.533;-0.22;-10.007
0.677;-0.03;0;-1.33;0.128;-11.733
0.628;0.014;0;0.893;-1.827;-10.402
0.688;1.19E-03;0;-2.307;-1.227;-7.719
0.664;-0.018;0;1.209;-2.049;-11.46
0.675;-0.013;0;-0.757;0.694;-10.375
0.678;-0.017;0;-0.769;-0.746;-9.735
0.681;0.032;0;1.828;2.02;-12.053
0.665;-0.028;0;1.647;-2.033;-11.906
0.633;0.023;0;1.441;1.987;-12.138
0.665;-9.27E-03;0;0.238;1.057;-9.301
0.655;0.024;0;1.634;0.316;-10.174
0.627;-0.026;0;-1.156;1.743;-8.593
0.658;-6.90E-03;0;0.256;-1.478;-9.258
0.677;-0.013;0;-1.399;-0.308;-10.628
0.625;0.022;0;-0.412;-2.208;-9.408
0.645;0.029;0;1.383;-0.014;-9.663
0.677;-4.64E-03;0;2.453;-1.896;-11.499
0.669;5.49E-03;0;2.451;-0.876;-10.748
0.662;-4.82E-03;0;-2.234;0.818;-11.483
0.645;-0.011;0;-1.392;-2.437;-7.729
0.62;0.029;0;-0.934;0.183;-10.271
0.617;-0.02;0;2.093;-1.004;-10.934
0.663;-2.68E-03;0;0.075;-0.34;-9.397
0.616;0.017;0;-0.038;-2.589;-9.345
0.633;7.61E-03;0;2.176;0.033;-8.235
0.626;-0.012;0;-1.765;-1.341;-9.2
0.604;0.031;0;1.871;7.61E-03;-11.316
0.599;-0.022;0;-0.787;0.662;-9.778
0.649;-3.77E-03;0;1.788;-0.444;-8.664
0.598;-0.013;0;-1.641;-1.792;-10.242
0.626;-6.73E-03;0;0.606;-1.382;-9.8
0.637;-0.018;0;-1.826;-1.03;-9.257
0.584;6.57E-03;0;1.407;-4.157;-7.795
0.593;-0.027;0;0.48;-3.489;-9.527
0.613;-0.013;0;-1.339;-0.779;-11.717
0.609;0.027;0;-1.43;-2.528;-8.185
0.622;0.018;0;-2.256;-4.42;-9.424
0.617;0.033;0;-2.064;-4.157;-9.239
0.584;-0.016;0;-1.626;-3.422;-8.667
0.567;-2.43E-03;0;0.517;-3.706;-10.156
0.598;0.024;0;0.672;-2.403;-8.844
0.56;0.023;0;0.397;-1.281;-8.383
0.591;-0.014;0;-1.136;-4.009;-8.095
0.553;0.017;0;-2.001;-2.108;-8.762
0.596;0.033;0;2.118;-3.54;-8.645
0.567;2.79E-03;0;-1.003;-3.097;-10.314
0.565;5.13E-03;0;-0.534;-3.842;-9.728
0.586;0.031;0;0.176;-3.034;-11.041
0.585;0.034;0;-0.376;-2.525;-8.664
0.567;0.026;0;0.566;-4.121;-9.233
0.528;7.78E-03;0;0.168;-2.132;-9.049
0.53;0.014;0;1.628;-3.78;-11.059
0.534;-0.017;0;-2.321;-4.968;-8.557
0.556;0.03;0;1.17;-2.144;-8.539
0.554;0.012;0;-0.969;-4.732;-8.577
0.526;-2.11E-03;0;-2.35;-4.927;-9.759
0.492;0.014;0;1.247;-3.974;-8.569
0.505;0.011;0;-0.085;-3.81;-8.526
0.499;0.015;0;1.041;-2.219;-8.129
0.516;-4.06E-03;0;1.368;-5.402;-8.968
0.495;9.43E-03;0;1.471;-2.998;-8.504
0.499;0.025;0;0.13;-4.354;-11.507
0.479;7.01E-03;0;-0.093;-3.87;-7.688
0.457;0.018;0;0.15;-5.352;-8.411
0.491;-1.46E-03;0;1.645;-3.245;-9.693
0.498;0.016;0;-2.072;-3.992;-10.721
0.451;0.013;0;0.128;-2.523;-8.473
0.423;-0.025;0;0.354;-2.404;-10.544
0.429;-0.025;0;1.725;-3.689;-10.358
0.45;-1.32E-03;0;1.42;-3.289;-11.08
0.407;0.026;0;2.404;-4.943;-7.404
0.412;0.011;0;1.772;-5.358;-9.145
0.438;9.16E-03;0;-0.946;-4.094;-8.785
0.437;5.25E-03;0;-1.154;-1.52;-9.659
0.4;-0.031;0;0.459;-2.697;-8.982
0.423;-8.24E-03;0;-2.087;-2.806;-9.771
0.366;-0.011;0;0.52;-6.238;-9.502
0.382;-0.015;0;0.62;-2.851;-8.033
0.398;3.95E-03;0;-1.098;-3.721;-6.538
0.383;0.02;0;2.122;-2.061;-9.947
0.402;-0.024;0;-1.955;-3.712;-8.426
0.367;-5.66E-04;0;1.457;-6.291;-8.391
0.352;0.012;0;-0.766;-4.396;-9.733
0.342;-0.027;0;-1.413;-3.786;-11.196
0.339;2.24E-04;0;-1.237;-3.578;-9.855
0.324;-0.028;0;1.979;-3.458;-7.844
0.3;0.026;0;2.087;-3.086;-7.78
0.312;1.91E-03;0;0.91;-3.665;-10.054
0.316;-1.66E-03;0;-0.687;-2.944;-8.013
0.276;-1.77E-03;0;-1.508;-3.387;-10.165
0.293;0.019;0;1.642;-2.261;-7.768
0.316;-0.012;0;1.912;-6.698;-6.492
0.317;-0.011;0;0.392;-2.21;-10.049
0.276;0.018;0;-1.42;-2.648;-6.874
0.274;-9.40E-03;0;1.089;-4.011;-8.686
0.276;0.022;0;2.156;-6.029;-10.552
0.242;3.72E-04;0;-0.925;-6.888;-9.168
0.228;-0.027;0;0.062;-6.554;-9.411
0.254;6.79E-03;0;1.034;-3.75;-7.311
0.249;-0.022;0;1.819;-3.256;-8.711
0.254;0.023;0;2.163;-3.579;-8.836
0.209;-0.012;0;0.585;-5.289;-7.388
0.182;-6.29E-05;0;-0.663;-6.165;-7.081
0.223;-0.024;0;-0.833;-2.881;-10.17
0.161;-7.77E-03;0;-1.92;-6.268;-6.724
0.212;-0.01;0;-0.594;-5.927;-6.766
0.164;-6.69E-03;0;2.355;-5.701;-10.757
0.142;8.10E-03;0;0.454;-4.975;-9.618
0.151;-0.014;0;-2.144;-4.664;-10.5
0.183;1.04E-03;0;0.984;-4.958;-8.544
0.117;0.018;0;-0.462;-3.708;-6.47
0.153;-0.017;0;-2.029;-5.646;-10.686
0.16;-6.64E-03;0;1.014;-6.879;-8.555
0.142;4.75E-03;0;1.133;-7.085;-9.673
0.108;-0.014;0;2.316;-4.551;-9.653
0.08;-6.97E-04;0;-2.035;-5.317;-9.138
0.118;0.031;0;1.708;-3.397;-6.225
0.077;0.028;0;-0.972;-3.764;-6.991
0.057;-5.51E-03;0;-1.734;-5.116;-7.025
0.05;-0.022;0;2.297;-5.593;-7.916
0.032;0.025;0;1.474;-6.149;-7.332
0.044;-0.014;0;1.391;-2.811;-8.946
0.057;-0.023;0;-1.592;-6.545;-9.34
0.024;-0.019;0;1.51;-4.322;-6.34
0.025;-0.022;0;-0.255;-4.066;-8.346
0.044;0.015;0;-0.367;-3.338;-7.086
-6.78E-03;-7.37E-03;0;-0.213;-4.942;-6.185
3.98E-03;0.033;0;-1.45;-3.275;-6.737
-6.13E-03;0.034;0;0.595;-3.357;-9.97
-0.021;-0.028;0;1.691;-2.532;-8.215
-0.014;-2.80E-03;0;-2.085;-4.309;-10.32
-0.058;0.02;0;0.628;-4.409;-9.653
-0.033;0.032;0;2.054;-3.493;-7.691
-0.028;9.70E-03;0;-1.649;-5.435;-7.074
-0.08;-0.022;0;1.032;-3.646;-8.87
-0.064;0.024;0;-1.523;-4.327;-7.262
-0.053;0.019;0;1.645;-5.038;-9.382
-0.092;-2.23E-03;0;-1.311;-4.084;-10.101
-0.062;-0.022;0;-1.918;-6.286;-8.862
-0.076;9.93E-03;0;0.281;-6.165;-8.623
-0.082;-0.015;0;-1.078;-6.06;-7.825
-0.126;0.017;0;1.94E-03;-2.916;-9.301
-0.108;0.012;0;0.614;-3.386;-8.854
-0.142;0.011;0;0.108;-5.64;-10.253
-0.129;0.024;0;-0.193;-6.358;-9.121
-0.121;0.021;0;-1.992;-3.918;-7.21
-0.119;8.26E-03;0;-0.059;-3.693;-7.214
-0.15;-3.75E-03;0;1.028;-4.14;-8.166
-0.141;-6.35E-03;0;-1.307;-5.078;-6.424
-0.187;-8.29E-03;0;-1.157;-4.389;-6.394
-0.179;-0.024;0;-1.775;-3.814;-8.598
-0.203;-0.028;0;1.575;-5.582;-8.105
-0.188;-0.01;0;0.809;-6.136;-9.552
-0.182;-0.022;0;-0.786;-2.518;-6.764
-0.234;-6.81E-03;0;-1.911;-4.766;-9.398
-0.224;-0.031;0;-1.574;-6.675;-9.939
-0.232;-0.016;0;-1.683;-2.619;-10.302
-0.24;0.033;0;2.004;-5.965;-10.705
-0.273;0.028;0;-1.156;-2.676;-10.229
-0.281;-8.21E-03;0;0.513;-4.594;-9.483
-0.257;0.021;0;1.09;-2.637;-8.46
-0.277;-0.025;0;0.025;-4.992;-7.167
-0.286;-0.021;0;-0.677;-6.525;-7.388
-0.274;-0.011;0;1.653;-2.858;-8.133
-0.323;-0.03;0;1.988;-5.309;-7.162
-0.278;-0.028;0;0.042;-6.28;-6.842
-0.332;1.30E-03;0;-2.287;-6.026;-6.535
-0.344;-0.014;0;-1.735;-5.793;-11.08
-0.312;-0.028;0;1.629;-3.786;-6.455
-0.345;0.017;0;0.515;-2.453;-8.224
-0.315;9.46E-03;0;-2.003;-4.983;-10.555
-0.313;-0.026;0;-0.74;-6.381;-9.304
-0.333;-0.023;0;1.308;-5.7;-9.469
-0.337;0.032;0;-5.58E-03;-2.292;-9.954
-0.335;-0.015;0;-1.035;-4.794;-10.403
-0.371;0.026;0;-0.716;-5.96;-7.832
-0.352;-0.027;0;-2.279;-3.737;-7.572
-0.403;-5.86E-03;0;-2.295;-6.265;-6.929
-0.409;-0.011;0;-0.541;-5.365;-7.812
-0.403;0.032;0;1.835;-3.272;-8.937
-0.409;-0.028;0;-1.279;-2.098;-6.971
-0.435;0.02;0;0.737;-4.297;-8.648
-0.442;-7.15E-03;0;0.603;-4.23;-7.35
-0.425;4.43E-04;0;0.913;-5.753;-7.943
-0.407;0.023;0;2.416;-2.697;-10.259
-0.423;0.012;0;-0.612;-5.38;-7.684
-0.435;3.40E-03;0;0.225;-3.479;-6.67
-0.461;-0.021;0;-1.866;-5.365;-11.278
-0.469;-0.015;0;2.109;-3.976;-10.572
-0.45;-0.013;0;2.001;-2.889;-8.849
-0.468;0.014;0;-1.297;-5.272;-9.004
-0.463;2.90E-03;0;2.402;-5.503;-9.447
-0.482;-0.017;0;-2.153;-2.727;-7.981
-0.472;-0.021;0;-0.512;-5.399;-8.479
-0.457;-0.021;0;1.794;-5.546;-9.806
-0.471;8.49E-04;0;-2.25;-2.839;-10.704
-0.474;0.035;0;0.155;-3.727;-9.664
-0.524;0.015;0;-1.036;-3.202;-10.375
-0.491;0.01;0;1.24;-5.152;-10.441
-0.545;-7.51E-03;0;-0.501;-1.007;-10.424
-0.498;0.028;0;1.928;-3.53;-9.042
-0.52;4.13E-04;0;1.495;-5.134;-11.105
-0.537;7.53E-03;0;0.436;-4.765;-10.851
-0.551;-0.022;0;1.665;-3.266;-11.552
-0.57;-0.012;0;0.195;-1.304;-11.187
-0.542;0.013;0;0.877;-1.482;-7.529
-0.527;-0.03;0;-1.361;-2.801;-10.013
-0.572;-0.015;0;-1.73;-3.354;-9.602
-0.565;-0.022;0;0.453;-3.054;-8.353
-0.585;-0.03;0;-1.361;-2.018;-7.337
-0.546;7.27E-03;0;1.013;-1.143;-9.422
-0.572;8.70E-03;0;1.651;-3.38;-9.496
-0.567;0.016;0;-1.222;-0.01;-11.389
-0.604;-0.027;0;1.622;-0.105;-8.934
-0.604;-0.03;0;1.634;-4.259;-9.949
-0.565;-0.023;0;0.078;-1.077;-11.766
-0.591;0.022;0;-0.624;-2.899;-7.251
-0.604;0.025;0;2.129;-2.319;-8.373
-0.574;-0.022;0;1.953;-2.095;-11.714
-0.624;3.93E-03;0;-1.104;-4.09;-11.371
-0.609;-0.011;0;0.295;-2.299;-10.843
-0.635;0.029;0;-1.661;-3.374;-9.287
-0.641;0.031;0;2.209;-4.046;-7.342
-0.604;6.42E-03;0;0.98;-4.009;-9.13
-0.625;-0.025;0;0.169;0.693;-9.304
-0.64;0.012;0;2.097;-2.516;-11.79
-0.601;-7.61E-03;0;-0.539;-3.819;-11.879
-0.63;9.06E-03;0;-1.401;-1.471;-11.743
-0.651;-3.32E-03;0;1.952;-0.753;-10.247
-0.595;-0.017;0;0.439;-3.695;-9.194
-0.652;-0.021;0;1.839;-0.185;-9.176
-0.638;8.79E-03;0;0.742;-0.626;-10.778
-0.665;2.17E-03;0;-0.772;-2.988;-11.288
-0.633;3.14E-03;0;0.643;0.493;-11.758
-0.643;-8.13E-03;0;1.337;-1.505;-11.851
-0.617;-2.48E-03;0;-0.25;-1.788;-7.929
-0.67;0.012;0;-2.022;-2.726;-11.024
-0.614;0.027;0;0.161;-1.409;-10.96
-0.622;0.032;0;1.279;0.39;-8.882
-0.627;9.57E-03;0;2.239;-1.91;-9.621
-0.667;0.013;0;1.687;-1.264;-8.604
-0.661;0.026;0;1.625;-0.831;-9.253
-0.625;-0.026;0;2.338;0.441;-7.53
-0.661;-5.08E-03;0;-0.658;-2.863;-10.212
-0.668;0.012;0;-1.744;-2.1;-11.11
-0.676;6.94E-03;0;0.812;-0.587;-9.576
-0.649;-1.80E-03;0;-0.042;0.464;-10.984
-0.681;-0.017;0;1.237;1.315;-11.835
-0.683;-0.016;0;1.594;-1.937;-10.291
-0.629;-0.011;0;0.442;-1.229;-7.855
-0.655;-0.015;0;-1.996;2.226;-8.608
-0.628;4.47E-03;0;1.38;0.514;-8.796
-0.684;-0.028;0;-1.125;0.888;-10.372
-0.689;7.31E-03;0;1.749;-0.012;-7.746
-0.688;-4.13E-03;0;0.187;2.32;-7.661
-0.672;-0.025;0;0.216;-0.674;-8.623
-0.674;0.019;0;0.537;-0.233;-10.795
-0.667;3.92E-03;0;-2.147;2.33;-9.537
-0.634;-0.019;0;-1.528;-1.549;-10.329
-0.645;-1.35E-03;0;1.861;1.56;-8.051
-0.669;-0.011;0;0.759;-0.958;-11.2
-0.626;0.015;0;-2.226;1.411;-11.672
-0.622;-0.019;0;1.754;2.339;-8.187
-0.639;0.032;0;-1.846;1.353;-10.464
-0.649;7.88E-03;0;2.231;1.359;-9.788
-0.676;-0.021;0;-0.624;0.441;-10.464
-0.663;0.015;0;-0.965;1.545;-8.509
-0.649;-0.023;0;-2.214;0.133;-7.889
-0.625;6.86E-03;0;-0.545;1.645;-9.499
-0.668;-0.026;0;-2.238;-0.755;-7.628
-0.672;2.92E-03;0;1.317;8.86E-03;-10.697
-0.664;-9.69E-03;0;-0.461;1.335;-9.257
-0.606;0.014;0;2.313;2.109;-7.969
-0.604;0.01;0;0.27;-0.503;-11.203
-0.654;0.033;0;-1.23;2.71;-9.757
-0.656;0.026;0;0.981;2.127;-9.173
-0.616;9.38E-03;0;-1.054;0.207;-9.711
-0.615;-0.019;0;0.026;2.152;-10.628
-0.608;5.95E-04;0;1.423;2.131;-7.586
-0.616;-1.23E-03;0;-0.651;1.349;-7.767
-0.611;4.06E-03;0;2.151;2.442;-7.661
-0.585;-0.026;0;-0.65;1.866;-7.714
-0.6;-4.00E-03;0;-0.062;0.163;-8.032
-0.636;-0.026;0;-0.96;-0.354;-9.508
-0.578;0.01;0;1.444;1.513;-10.989
-0.62;5.74E-03;0;1.331;2.449;-7.342
-0.618;-0.01;0;0.291;2.991;-10.153
-0.623;-0.018;0;1.68;1.399;-10.607
-0.602;-0.029;0;-1.361;3.336;-8.609
-0.615;-0.017;0;-1.611;0.477;-11.177
-0.589;5.77E-03;0;-2.233;3.339;-9.287
-0.594;-0.012;0;-2.012;4.048;-8.649
-0.586;-0.021;0;1.977;2.988;-7.806
-0.541;0.02;0;1.099;4.347;-9.573
-0.589;-0.01;0;0.824;2.99;-10.741
-0.547;0.028;0;-0.088;3.62;-10.423
-0.532;-8.19E-03;0;-1.989;0.916;-8.573
-0.562;-0.018;0;1.517;2.262;-10.136
-0.543;0.031;0;-0.92;3.45;-8.028
-0.571;0.027;0;2.449;2.085;-9.105
-0.54;0.032;0;2.212;1.711;-9.779
-0.54;-0.013;0;0.806;4.126;-11.599
-0.513;0.015;0;0.395;3.231;-7.373
-0.529;-0.017;0;0.15;2.065;-7.717
-0.512;0.021;0;0.819;5.082;-8.745
-0.504;3.03E-04;0;0.199;3.516;-9.556
-0.49;0.03;0;-2.341;1.729;-7.148
-0.523;-0.03;0;0.626;3.372;-7.122
-0.498;0.026;0;0.238;3.427;-8.619
-0.498;-0.014;0;-1.422;3.954;-9.996
-0.494;1.24E-03;0;-0.139;4.922;-9.161
-0.461;-0.027;0;1.39;1.329;-11.454
-0.484;0.013;0;1.338;5.256;-9.535
-0.474;0.016;0;1.473;3.715;-7.39
-0.446;0.013;0;-2.321;4.016;-8.91
-0.464;6.77E-03;0;2.159;1.328;-7.705
-0.488;0.013;0;-0.419;2.719;-7.578
-0.42;7.40E-03;0;-1.797;1.669;-9.049
-0.425;-5.15E-03;0;-1.846;3.969;-8.066
-0.459;-8.74E-04;0;-0.273;1.531;-10.814
-0.43;-0.016;0;1.378;3.435;-11.177
-0.401;0.012;0;-1.486;4.92;-9.601
-0.417;0.028;0;-1.312;5.744;-10.742
-0.402;0.029;0;-0.936;6.226;-10.801
-0.382;0.035;0;-1.015;1.634;-7.627
-0.376;6.51E-03;0;-1.087;4.604;-6.934
-0.394;0.013;0;1.294;4.791;-8.335
-0.412;-6.98E-03;0;2.177;2.52;-9.447
-0.383;4.85E-04;0;0.076;3.971;-9.52
-0.384;0.032;0;-1.131;6.365;-6.723
-0.344;0.025;0;-0.19;5.75;-10.644
-0.353;0.024;0;-1.218;6.137;-7.087
-0.373;-0.019;0;1.434;4.277;-8.054
-0.378;0.031;0;-0.405;4.948;-10.731
-0.363;0.034;0;-2.246;5.304;-7.881
-0.317;9.77E-03;0;2.035;3.268;-6.842
-0.297;-0.028;0;-1.901;3.36;-11.049
-0.3;-0.024;0;-0.177;3.859;-8.116
-0.309;-0.023;0;-0.854;5.682;-7.792
-0.282;-3.61E-03;0;-0.456;4.78;-7.42
-0.315;-0.02;0;-0.881;6.593;-7.069
-0.323;0.014;0;-1.813;3.18;-8.194
-0.305;-9.32E-03;0;1.122;5.929;-8.492
-0.287;0.02;0;2.318;6.086;-8.547
-0.259;-0.025;0;1.848;4.058;-9.453
-0.281;-0.012;0;2.219;3.604;-8.916
-0.28;5.74E-03;0;-2.021;4.587;-7.941
-0.24;0.029;0;-0.616;6.507;-9.781
-0.262;-0.011;0;1.688;5.383;-7.21
-0.196;0.029;0;0.691;2.663;-6.798
-0.217;0.027;0;1.429;4.188;-6.821
-0.233;0.033;0;0.735;6.399;-7.532
-0.229;-0.018;0;-1.171;4.27;-10.258
-0.187;-0.013;0;0.246;2.367;-9.863
-0.182;-0.024;0;0.175;3.119;-9.606
-0.177;7.76E-03;0;0.347;6.082;-9.496
-0.149;-9.20E-03;0;1.99;2.51;-6.327
-0.15;0.016;0;1.346;4.234;-10.312
-0.189;0.024;0;-1.802;3.716;-9.406
-0.131;0.025;0;-1.296;6.573;-8.837
-0.117;-0.019;0;0.307;6.962;-7.397
-0.149;-0.016;0;0.059;6.108;-8.287
-0.11;0.017;0;1.967;2.935;-9.472
-0.149;0.012;0;-1.732;2.505;-9.446
-0.129;-0.021;0;-0.485;4.294;-7.802
-0.114;-0.024;0;1.255;5.604;-9.78
-0.087;-8.25E-03;0;-0.156;4.044;-9.237
-0.101;-5.65E-03;0;0.753;5.697;-6.127
-0.055;-0.029;0;2.254;4.836;-7.84
-0.045;0.015;0;-0.04;5.341;-8.326
-0.064;-0.017;0;0.968;6.096;-7.799
-0.061;-0.027;0;1.406;3.217;-6.249
-0.049;0.021;0;-0.214;6.497;-6.724
-0.063;0.024;0;-1.834;5.565;-8.16
-0.018;-7.38E-03;0;-0.963;4.806;-10.39
-0.016;0.02;0;-0.506;3.788;-6.333
-7.63E-03;0.019;0;-0.832;3.768;-8.164
-0.035;-7.11E-03;0;-0.599;3.378;-7.103
0.034;-0.022;0;0.376;4.853;-9.024
-4.98E-03;1.55E-03;0;0.998;4.268;-10.092
6.21E-03;-0.018;0;-0.656;3.326;-9.72
0.032;-0.013;0;0.299;3.385;-6.503
0.051;1.74E-03;0;0.942;5.139;-9.402
0.026;-9.48E-03;0;-0.942;6.003;-6.22
0.087;-0.015;0;-2.107;2.979;-9.576
0.085;-0.031;0;-1.608;6.111;-9.748
0.073;0.011;0;-1.237;5.08;-7.944
0.063;-0.025;0;-0.501;4.144;-6.868
0.109;-0.019;0;-0.435;6.073;-6.714
0.073;-0.01;0;1.705;3.021;-9.364
0.093;0.031;0;-1.414;3.083;-10.29
0.09;-0.011;0;0.076;2.801;-7.403
0.108;-0.02;0;-2.209;4.044;-8.893
0.156;-7.58E-03;0;1.7;6.996;-10.771
0.141;-5.99E-03;0;-0.917;6.445;-9.536
0.178;6.32E-04;0;0.372;3.157;-6.854
0.147;-0.015;0;1.251;4.045;-9.983
0.147;-0.015;0;0.894;2.896;-6.166
0.142;-0.013;0;1.097;4.591;-10.736
0.2;0.026;0;-0.925;2.998;-7.337
0.213;0.024;0;-0.246;5.488;-8.764
0.167;0.031;0;-0.977;5.672;-9.087
0.182;-5.14E-03;0;-1.54;6.615;-10.342
0.233;2.72E-03;0;-2.135;2.853;-6.854
0.209;1.42E-03;0;-0.776;2.43;-6.689
0.198;5.80E-03;0;0.235;4.919;-10.269
0.217;-2.40E-03;0;-0.546;3.702;-7.489
0.26;0.022;0;2.299;4.323;-9.533
0.226;-0.024;0;0.796;6.99;-8.656
0.258;0.034;0;-1.958;2.56;-8.611
0.258;0.031;0;2.009;5.465;-8.672
0.292;-0.016;0;0.454;5.405;-10.024
0.252;-3.32E-04;0;0.953;2.46;-7.55
0.274;0.03;0;0.548;4.267;-6.684
0.32;1.08E-03;0;-0.462;5.975;-6.583
0.314;9.99E-03;0;1.074;2.428;-9.738
0.298;-0.018;0;-1.74;3.977;-10.256
0.304;-0.011;0;-0.222;3.066;-9.25
0.336;-6.13E-03;0;-1.802;4.475;-10.022
0.326;0.017;0;1.394;3.401;-7.252
0.353;-0.028;0;1.916;5.624;-8.982
0.326;-0.03;0;0.505;3.205;-10.361
0.352;6.84E-03;0;2.298;3.855;-9.516
0.339;-0.017;0;0.049;4.712;-10.951
0.364;9.88E-03;0;-1.17;6.251;-8.466
0.378;-0.023;0;-2.004;2.559;-7.501
0.353;-0.025;0;1.512;6.131;-8.438
0.399;0.034;0;2.155;3.277;-6.594
0.371;-7.82E-03;0;-0.576;3.446;-8.124
0.396;-7.54E-03;0;0.831;5.68;-9.11
0.379;0.019;0;-1.652;4.911;-9.047
0.434;0.027;0;2.172;5.684;-9.612
0.404;-0.029;0;-1.296;3.736;-11.227
0.406;-0.03;0;-2.17;5;-6.669
0.4;-0.01;0;-1.028;3.707;-11.16
0.461;0.02;0;2.207;5.491;-9.846
0.47;4.61E-03;0;1.631;5.735;-8.247
0.477;-0.014;0;-1.1;2.296;-7.46
0.484;0.029;0;1.014;2.394;-9.018
0.481;-0.026;0;-1.521;5.59;-10.619
0.498;-0.025;0;2.219;4.339;-11.278
0.496;0.017;0;0.762;3.111;-7.851
0.453;-0.031;0;2.416;4.703;-10.377
0.471;4.35E-03;0;-1.579;3.917;-8.332
0.51;0.019;0;-1.909;1.519;-9.737
0.504;0.011;0;-2.251;3.367;-8.033
0.498;7.20E-03;0;-2.341;3.481;-10.544
0.532;-1.84E-03;0;1.138;5.003;-8.7
0.486;-5.46E-03;0;2.024;4.502;-10.795
0.524;-0.026;0;-0.786;1.813;-10.538
0.494;0.02;0;-0.177;1.401;-7.863
0.527;-0.014;0;-1.114;4.477;-7.547
0.51;0.033;0;2.423;1.714;-10.701
0.545;0.03;0;0.667;4.664;-7.339
0.523;0.026;0;1.965;4.636;-7.796
0.543;4.13E-03;0;-0.412;4.227;-8.246
0.559;-0.014;0;-2.295;3.024;-7.569
0.532;0.025;0;-0.018;3.199;-8.409
0.573;0.013;0;-2.021;3.911;-10.77
0.585;-0.011;0;-1.725;0.504;-8.523
0.566;0.026;0;-1.17;4.871;-7.561
0.594;0.032;0;0.982;1.234;-10.799
0.585;-0.013;0;0.453;0.623;-7.841
0.555;0.02;0;-1.606;2.692;-9.487
0.586;0.014;0;-5.96E-03;0.462;-10.029
0.581;9.32E-03;0;-0.4;1.13;-9.163
0.596;-0.021;0;-2.161;1.116;-8.2
0.589;-6.12E-03;0;1.278;0.982;-8.436
0.581;0.015;0;-0.815;1.384;-10.086
0.63;0.021;0;0.687;1.223;-9.309
0.636;0.012;0;-0.05;3.138;-7.199
0.625;-0.011;0;2.221;3.163;-9.095
0.636;-0.02;0;1.323;3.335;-8.998
0.614;0.011;0;-1.839;-0.139;-11.08
0.587;0.028;0;-1.266;3.337;-10.253
0.592;-0.011;0;-2.032;1.103;-10.816
0.657;-0.018;0;-0.837;1.729;-8.335
0.606;9.84E-03;0;0.228;1.241;-8.684
0.602;-0.031;0;-1.851;1.746;-11.678
0.62;0.027;0;0.82;1.523;-10.401
0.639;0.011;0;-0.739;-0.512;-11.949
0.642;0.021;0;-1.284;-0.98;-8.432
0.609;0.016;0;-2.231;3.27;-10.181
0.618;0.032;0;1.655;0.896;-11.733
0.616;-2.48E-03;0;1.679;2.216;-11.719
0.641;0.013;0;-2.101;0.177;-11.033
0.648;-5.24E-03;0;2.234;1.74;-8.13
0.668;0.017;0;2.067;0.594;-9.573
0.642;-0.014;0;0.716;0.755;-9.952
0.676;-8.30E-03;0;1.863;2.618;-11.313
0.626;-5.50E-03;0;-1.16;-0.576;-9.018
0.651;-0.024;0;0.214;-0.183;-10.006
0.661;0.012;0;1.865;-1.193;-11.144
0.682;-0.03;0;-1.142;-1.397;-10.549
0.634;0.022;0;-0.561;-0.499;-8.317
0.689;-4.59E-03;0;-2.279;-0.078;-10.636
0.669;-6.75E-03;0;2.113;-0.905;-11.927
0.646;0.029;0;0.343;-0.777;-7.78
0.691;6.49E-03;0;2.412;0.327;-11.376
0.626;-7.22E-03;0;-1.251;0.957;-7.808
0.636;-0.016;0;0.891;0.939;-8.455
0.692;3.42E-03;0;0.104;-1.829;-8.534
0.641;-0.031;0;-0.291;1.132;-11.054
0.652;0.016;0;1.274;-0.017;-11.656
0.647;-0.012;0;-1.6;-0.361;-11.593
0.661;-0.012;0;-2.333;-0.184;-7.724
0.676;0.012;0;0.117;-0.11;-11.625
0.626;0.031;0;-0.237;0.824;-11.265
0.679;-1.57E-03;0;0.553;-2.73;-7.424
0.642;0.012;0;-0.511;1.01;-9.193
0.626;1.92E-03;0;1.449;-2.187;-7.617
0.63;4.43E-03;0;-0.718;1.58;-10.146
0.66;-0.012;0;1.678;0.862;-12.107
0.669;-7.39E-03;0;-2.1;-1.271;-9.814
0.659;0.012;0;-1.812;0.836;-8.916
0.667;8.67E-03;0;-2.25;-1.639;-11.83
0.621;-3.27E-04;0;-2.13;-1.656;-9.543
0.638;-6.53E-03;0;-0.071;-0.483;-10.62
0.619;-0.012;0;0.541;-1.142;-11.191
0.663;0.019;0;-1.164;0.44;-8.474
0.612;-7.33E-03;0;2.146;-1.212;-7.435
0.649;0.03;0;0.25;-2.916;-11.717
0.65;-0.027;0;2.433;-0.314;-7.781
0.625;5.25E-03;0;-2.176;-0.856;-10.919
0.636;-0.022;0;-1.096;-2.466;-9.814
0.645;-0.027;0;-0.817;-0.218;-10.204
0.644;0.023;0;-0.647;-2.542;-9.393
0.616;-0.025;0;-1.885;-3.779;-9.657
0.616;-0.02;0;1.146;0.812;-11.798
0.6;8.99E-03;0;-1.527;-2.618;-10.698
0.651;0.018;0;-1.59;0.573;-9.119
0.632;-0.015;0;0.694;0.369;-10.898
0.641;0.028;0;-1.073;-0.719;-11.779
0.61;-8.39E-03;0;-1.132;-3.039;-10.04
0.579;0.025;0;1.332;-1.077;-8.141
0.632;-0.031;0;0.208;-3.278;-8.348
0.587;0.029;0;0.95;-3.747;-7.388
0.599;0.018;0;-0.504;-1.904;-9.026
0.582;0.023;0;-1.106;0.223;-10.796
0.595;-8.73E-03;0;2.067;-0.142;-10.872
0.615;0.01;0;1.05;-0.736;-8.884
0.591;0.032;0;-0.946;-1.297;-7.917
0.548;-0.012;0;0.791;-3.95;-8.217
0.597;1.55E-03;0;-1.906;-1.949;-10.663
0.567;-0.021;0;-0.648;-0.979;-7.471
0.597;-0.016;0;-1.216;-2.124;-9.769
0.534;9.09E-04;0;0.016;-3.033;-8.25
0.59;9.96E-04;0;1.657;-4.539;-7.296
0.525;7.15E-03;0;1.204;-1.774;-9.123
0.544;0.012;0;-2.341;-4.288;-7.527
0.575;-0.021;0;1.535;-2.64;-10.679
0.527;-0.024;0;-1.926;-1.552;-10.751
0.516;0.017;0;-1.32;-1.059;-8.908
0.541;-5.79E-03;0;-1.035;-5.049;-7.781
0.5;0.033;0;-0.115;-5.055;-9.507
0.522;-0.013;0;-2.221;-1.124;-8.986
0.52;-0.019;0;1.956;-3.442;-11.595
0.52;-0.026;0;-0.533;-5.208;-9.455
0.518;-0.01;0;1.838;-2.342;-7.842
0.495;0.016;0;-0.057;-2.318;-10.617
0.502;0.013;0;0.388;-5.195;-7.181
0.496;0.027;0;-0.387;-3.863;-9.531
0.495;-8.37E-03;0;-2.008;-1.298;-6.946
0.448;-0.026;0;1.171;-3.408;-8.883
0.456;0.032;0;2.297;-1.488;-7.113
0.451;0.01;0;1.101;-5.79;-6.974
0.451;2.55E-03;0;-1.349;-3.344;-7.916
0.424;-5.11E-03;0;1.193;-3.548;-11.112
0.429;0.033;0;-0.348;-1.424;-11.414
0.444;5.25E-03;0;1.461;-2.986;-9.666
0.419;-3.03E-03;0;-0.587;-1.837;-6.735
0.435;0.03;0;0.741;-2.643;-8.69
0.417;-5.73E-03;0;1.847;-2.826;-7.642
0.413;-0.011;0;0.038;-2.478;-10.68
0.395;-0.023;0;1.423;-1.623;-6.767
0.407;-8.29E-03;0;1.227;-4.218;-7.728
0.429;5.08E-03;0;-0.816;-3.669;-6.517
0.403;-9.96E-03;0;0.985;-4.259;-10.843
0.378;0.011;0;-0.209;-3.125;-10.208
0.354;-5.88E-03;0;1.424;-2.071;-9.853
0.377;0.021;0;0.253;-2.1;-8.441
0.349;0.012;0;-1.183;-6.263;-10.634
0.374;-0.026;0;-2.155;-3.871;-7.743
0.373;0.018;0;0.748;-3.574;-10.423
0.318;-0.025;0;-0.979;-4.268;-6.667
0.354;-0.028;0;-0.575;-2.734;-9.907
0.346;0.03;0;-0.851;-3.013;-9.658
0.336;-2.05E-03;0;-0.455;-3.104;-9.36
0.325;-0.019;0;1.397;-6.317;-7.901
0.326;6.32E-03;0;-0.372;-4.823;-10.613
0.274;0.02;0;1.327;-4.057;-7.853
0.271;7.08E-03;0;1.167;-6.544;-10.574
0.253;0.031;0;0.732;-3.417;-7.833
0.3;-4.14E-03;0;2.177;-6.507;-8.105
0.287;4.60E-03;0;1.299;-6.161;-8.163
0.231;-7.11E-03;0;1.447;-5.922;-9.955
0.254;-0.019;0;-1.626;-6.61;-8.135
0.263;-0.016;0;-1.092;-6.39;-9.485
0.236;0.026;0;2.324;-3.259;-7.986
0.265;9.49E-03;0;-0.812;-5.11;-10.422
0.194;0.03;0;2.006;-4.967;-7.61
0.19;0.02;0;-1.032;-3.664;-6.882
0.214;-0.029;0;-1.19;-5.408;-10.578
0.2;7.52E-03;0;-1.145;-5.274;-6.314
0.221;0.025;0;1.733;-2.871;-10.778
0.186;0.03;0;1.157;-6.696;-6.614
0.176;-0.018;0;1.381;-5.458;-8.697
0.194;-0.019;0;0.634;-2.942;-9.25
0.162;-0.01;0;0.863;-2.601;-10.621
0.176;-0.026;0;1.713;-6.151;-8.479
0.114;-0.028;0;1.257;-6.41;-9.709
0.107;6.58E-03;0;1.924;-5.491;-9.686
0.141;8.53E-03;0;0.416;-4.355;-7.974
0.091;0.033;0;-0.89;-4.005;-7.271
0.118;0.015;0;-1.075;-3.711;-10.818
0.096;-0.024;0;0.615;-6.386;-8.787
0.095;0.011;0;-0.145;-4.467;-9.897
0.076;0.017;0;0.644;-7.106;-6.922
0.075;-0.018;0;0.967;-4.202;-6.146
0.043;0.015;0;0.182;-6.673;-10.031
0.041;-0.029;0;-0.378;-6.241;-7.008
0.063;3.17E-03;0;1.984;-4.508;-8.807
0.045;-0.02;0;-0.538;-4.799;-6.434
0.064;4.45E-03;0;2.153;-5.838;-9.011
0.04;4.41E-03;0;0.665;-4.945;-6.7
0.026;-5.46E-03;0;2.174;-5.498;-7.85
7.63E-03;-0.031;0;1.261;-3.033;-8.862
-0.015;-0.022;0;0.385;-5.283;-10.279
-0.014;0.024;0;0.969;-4.658;-6.874
4.83E-03;4.25E-03;0;1.216;-3.707;-6.068
-0.04;-0.013;0;1.373;-5.78;-8.336
-0.028;0.027;0;1.168;-5.185;-8.739
-0.052;0.017;0;-1.31;-4.466;-6.319
-0.056;0.034;0;-0.553;-6.729;-9.886
-0.027;0.014;0;1.432;-2.54;-6.97
-0.08;0.017;0;1.882;-4.369;-7.692
-0.059;0.014;0;1.899;-6.897;-8.49
-0.103;7.22E-03;0;-1.281;-6.238;-6.416
-0.054;-0.012;0;1.109;-4.212;-7.349
-0.065;8.72E-03;0;0.287;-3.179;-6.236
-0.075;0.02;0;1.676;-5.315;-9.057
-0.082;-1.25E-03;0;0.583;-4.004;-10.049
-0.093;-0.024;0;0.951;-3.158;-8.786
-0.094;0.024;0;0.819;-4.547;-8.898
-0.11;-0.029;0;-0.118;-3.172;-10.494
-0.15;0.017;0;1.46;-2.438;-6.289
-0.178;-0.024;0;2.212;-3.56;-6.592
-0.166;-0.019;0;-1.36;-3.65;-9.428
-0.166;-0.028;0;0.273;-2.609;-10.832
-0.201;0.016;0;-0.766;-2.967;-9.158
-0.19;9.01E-03;0;-1.131;-6.722;-8.772
-0.207;-0.017;0;-0.844;-4.601;-6.444
-0.165;-0.024;0;1.427;-5.676;-9.838
-0.23;-2.26E-03;0;1.642;-2.594;-6.23
-0.198;-0.031;0;0.291;-4.178;-7.648
-0.228;0.031;0;0.865;-6.496;-7.656
-0.255;6.06E-03;0;1.08;-4.134;-8.582
-0.207;2.06E-03;0;-1.982;-3.078;-7.627
-0.258;0.028;0;-1.982;-2.646;-7.372
-0.248;0.032;0;-0.747;-6.891;-8.25
-0.287;0.014;0;2.26;-5.917;-7.203
-0.256;-3.59E-03;0;0.131;-3.897;-6.675
-0.245;7.24E-03;0;1.648;-3.917;-6.365
-0.266;0.028;0;2.091;-3.472;-10.74
-0.272;0.023;0;2.012;-2.099;-10.486
-0.282;-0.017;0;-1.695;-3.015;-10.874
-0.324;0.03;0;-0.393;-2.171;-6.804
-0.336;-0.013;0;-1.529;-3.538;-9.361
-0.34;0.034;0;1.135;-4.166;-7.598
-0.298;2.68E-03;0;1.053;-5.464;-8.561
-0.34;9.01E-03;0;-1.357;-3.526;-7.877
-0.356;0.015;0;1.755;-2.834;-11.12
-0.351;0.019;0;1.314;-2.58;-7.716
-0.335;0.026;0;-0.386;-6.087;-10.694
-0.371;0.019;0;-2.187;-5.322;-6.854
-0.356;-2.23E-03;0;-1.825;-5.859;-6.972
-0.399;8.92E-03;0;-0.76;-5.246;-6.538
-0.39;6.49E-03;0;1.576;-4.128;-9.111
-0.4;0.029;0;-2.067;-2.452;-7.971
-0.374;-1.81E-03;0;-1.804;-5.896;-8.493
-0.376;6.33E-03;0;1.765;-2.086;-8.693
-0.414;0.025;0;-0.985;-1.601;-9.893
-0.418;-2.33E-03;0;-1.595;-1.501;-10.281
-0.428;0.01;0;-1.666;-1.712;-10.643
-0.426;-0.01;0;-0.406;-4.713;-9.875
-0.411;-0.01;0;0.923;-4.658;-7.25
-0.446;-0.015;0;0.649;-4.243;-8.119
-0.473;9.38E-03;0;-2.332;-2.83;-10.413
-0.455;7.42E-03;0;0.464;-2.584;-10.841
-0.445;0.031;0;0.14;-3.929;-8.47
-0.458;0.028;0;-1.076;-3.748;-9.002
-0.458;0.022;0;1.723;-4.163;-9.247
-0.476;0.034;0;1.637;-3.88;-10.363
-0.488;-0.015;0;-0.226;-1.13;-9.008
-0.481;-0.021;0;1.789;-2.732;-11.263
-0.494;0.027;0;-0.681;-2.106;-8.857
-0.527;-0.02;0;-2.158;-2.479;-10.806
-0.509;-0.027;0;-1.839;-5.027;-9.024
-0.536;0.021;0;-2.315;-1.26;-8.725
-0.536;8.72E-03;0;-1.097;-4.018;-10.035
-0.507;-2.66E-03;0;0.633;-0.803;-7.486
-0.539;-1.92E-04;0;-0.337;-1.561;-8.897
-0.559;0.027;0;-0.769;-1.864;-7.999
-0.566;-0.029;0;-0.607;-2.253;-9.672
-0.506;7.75E-03;0;1.87;-2.03;-9.863
-0.514;-0.015;0;-1.579;-3.888;-7.741
-0.556;-4.79E-03;0;-2.01;-3.264;-10.322
-0.554;-0.02;0;1.268;-4.073;-10.388
-0.523;-9.73E-03;0;1.488;-0.495;-8.064
-0.549;8.94E-03;0;2.377;-4.479;-9.736
-0.535;-0.017;0;-2.054;-1.877;-10.828
-0.592;0.025;0;0.248;-2.073;-9.136
-0.552;0.026;0;-1.384;-3.945;-9.707
-0.605;-3.54E-03;0;1.405;-2.329;-9.418
-0.554;6.97E-04;0;-2.087;-1.158;-10.433
-0.607;-0.024;0;1.99;-0.487;-8.034
-0.579;-0.029;0;-1.081;-1.107;-7.62
-0.577;0.013;0;-0.259;-4.326;-8.833
-0.599;-7.08E-03;0;-0.224;0.102;-11.494
-0.581;0.029;0;0.139;-1.241;-8.981
-0.618;0.014;0;-0.289;0.436;-8.253
-0.575;-6.62E-03;0;2.145;-0.788;-8.833
-0.579;-0.02;0;-0.69;-2.761;-11.675
-0.607;-0.015;0;-0.552;-2.613;-11.265
-0.593;1.77E-03;0;0.894;0.666;-10.213
-0.632;0.028;0;1.862;-1.679;-8.202
-0.623;0.025;0;-1.971;-0.167;-10.422
-0.596;6.24E-03;0;2.231;-0.908;-7.383
-0.655;-0.017;0;-1.511;-3.107;-9.844
-0.601;6.14E-03;0;-0.767;-3.733;-10.577
-0.627;0.024;0;2.413;0.734;-8.831
-0.619;0.011;0;1.442;0.058;-10.694
-0.617;-0.022;0;-0.817;-0.634;-9.808
-0.615;0.015;0;-1.932;0.963;-10.353
-0.632;-7.84E-03;0;0.912;-0.21;-7.714
-0.626;0.018;0;-0.423;0.508;-9.175
-0.62;-0.025;0;-1.772;0.601;-11.439
-0.659;-0.029;0;-0.978;-1.033;-10.424
-0.654;0.033;0;0.423;0.512;-8.67
-0.674;-9.88E-03;0;0.551;-1.173;-8.699
-0.649;0.016;0;2.409;-0.597;-10.108
-0.658;-5.76E-04;0;-0.428;-1.427;-9.284
-0.682;0.011;0;2.091;-1.054;-8.548
-0.662;0.026;0;-1.446;-2.897;-12.027
-0.619;-0.021;0;1.931;-2.157;-8.013
-0.659;-0.015;0;0.611;-2.205;-10.357
-0.652;-0.029;0;-1.866;-1.627;-11.327
-0.641;-0.012;0;2.376;-1.15;-10.41
-0.639;-0.022;0;1.798;0.034;-10.735
-0.67;-3.50E-04;0;0.416;2.226;-10.304
-0.667;-7.23E-03;0;-0.686;1.782;-9.364
-0.637;0.013;0;-0.97;-1.072;-11.853
-0.649;-3.72E-03;0;2.115;-1.707;-7.585
-0.659;-0.031;0;0.045;1.434;-9.552
-0.653;-5.36E-03;0;1.722;1.332;-10.899
-0.639;-0.012;0;0.905;-0.703;-9.888
-0.633;1.68E-03;0;-0.58;-0.435;-7.824
-0.675;0.018;0;0.904;0.039;-11.413
-0.66;-0.03;0;-1.379;-1.536;-8.077
-0.639;-0.021;0;-1.424;2.539;-8.224
-0.672;0.03;0;-0.563;0.76;-7.783
-0.668;-0.012;0;-0.669;2.524;-9.786
-0.673;-0.024;0;-1.087;1.782;-10.47
-0.64;0.02;0;1.946;2.373;-9.956
-0.643;0.019;0;-2.025;-0.44;-9.056
-0.622;0.032;0;2.194;-0.16;-8.704
-0.658;0.018;0;-0.68;2.694;-9.486
-0.645;-4.92E-03;0;1.473;0.014;-9.769
-0.622;7.68E-03;0;2.094;2.203;-10.862
-0.66;-0.02;0;1.033;1.093;-11.233
-0.657;0.027;0;1.647;0.934;-8.29
-0.615;0.012;0;-1.509;3.1;-8.378
-0.663;0.019;0;0.19;-0.565;-10.211
-0.66;-0.014;0;0.89;-0.282;-11.387
-0.652;-0.013;0;-1.809;3.039;-11.452
-0.605;-1.08E-03;0;-1.113;2.389;-10.745
-0.618;-0.023;0;1.185;1.938;-9.888
-0.644;0.01;0;-1.949;3.96;-8.256
-0.613;0.029;0;2.214;3.406;-7.991
-0.608;-8.44E-03;0;-1.042;3.137;-8.071
-0.603;-0.028;0;-1.395;0.66;-10.203
-0.612;-0.016;0;-1.943;1.848;-8.741
-0.639;0.016;0;-1.496;0.791;-10.305
-0.576;-0.016;0;1.918;0.596;-10.864
-0.634;0.027;0;-1.046;1.039;-8.566
-0.61;1.95E-03;0;1.865;0.091;-9.236
-0.627;0.017;0;1.493;2.203;-9.57
-0.61;9.76E-04;0;-2.252;0.569;-8.097
-0.571;0.018;0;-0.991;1.356;-11.67
-0.585;0.012;0;-1.382;2.272;-9.172
-0.563;3.29E-03;0;-0.198;4.554;-11.063
-0.601;-6.84E-03;0;-2.268;3.324;-11.09
-0.576;0.016;0;-1.427;1.731;-7.418
-0.601;-0.012;0;-1.327;3.272;-8.331
-0.537;-0.022;0;-1.26;2.152;-9.994
-0.569;0.029;0;-1.321;3.722;-9.067
-0.54;-3.28E-03;0;0.607;0.497;-7.158
-0.576;-6.38E-05;0;1.139;4.725;-7.163
-0.522;-0.011;0;2.106;0.805;-8.802
-0.517;-0.026;0;1.839;2.767;-9.428
-0.557;0.029;0;-1.261;1.991;-9.193
-0.52;-0.026;0;1.665;3.431;-10.112
-0.536;-0.028;0;0.601;4.878;-8.607
-0.527;-8.24E-04;0;-0.038;1.725;-8.934
-0.499;-0.031;0;0.231;2.119;-8.567
-0.549;0.01;0;2.039;0.802;-7.909
-0.509;0.017;0;0.507;1.359;-8.483
-0.495;-0.025;0;-0.188;2.862;-11.143
-0.506;0.034;0;-2.128;4.556;-9.852
-0.477;-5.38E-03;0;2.353;4.495;-10.936
-0.522;-6.90E-03;0;1.279;3.398;-7.728
-0.504;0.03;0;-1.588;2.36;-8.406
-0.452;0.011;0;1.351;5.105;-9.29
-0.444;0.031;0;-0.212;3.007;-8.691
-0.493;-4.39E-03;0;-1.012;4.32;-11.137
-0.449;-1.70E-03;0;-0.445;4.273;-10.127
-0.442;0.011;0;-1.669;1.899;-8.782
-0.46;-0.027;0;-1.191;4.562;-9.159
-0.434;0.025;0;1.167;5.553;-8.446
-0.43;0.025;0;-1.544;2.626;-6.731
-0.433;1.47E-03;0;-0.95;2.583;-8.849
-0.448;-0.031;0;-0.876;5.697;-9.092
-0.419;0.016;0;0.209;3.084;-9.65
-0.381;-3.22E-03;0;1.868;3.786;-8.737
-0.416;6.82E-03;0;0.996;4.475;-9.4
-0.409;-0.022;0;-0.122;4.913;-10.546
-0.393;0.034;0;1.436;4.569;-11.222
-0.359;-1.07E-03;0;1.921;2.552;-7.116
-0.38;0.02;0;-1.344;5.359;-8.696
-0.342;-0.031;0;0.829;3.708;-6.787
-0.355;0.018;0;0.097;4.974;-8.601
-0.384;-4.46E-03;0;-0.158;3.323;-8.77
-0.385;-5.75E-03;0;-0.131;6.471;-10.136
-0.361;0.016;0;0.534;4.604;-9.641
-0.315;0.029;0;-1.372;2.485;-6.875
-0.342;2.39E-03;0;-2.181;4.601;-7.701
-0.34;-7.76E-04;0;0.72;2.865;-7.997
-0.304;0.014;0;1.131;6.175;-7.761
